key_resp.keys,key_resp.rt,key_resp_2.keys,key_resp_2.rt,key_resp_3.keys,key_resp_3.rt,key_resp_4.keys,key_resp_4.rt,trials.thisRepN,trials.thisTrialN,trials.thisN,trials.thisIndex,trials.ran,trail_nums,img1,img2,participant,session,date,expName,psychopyVersion,OS,frameRate
space,1.17414,space,2.839945,space,3.42803,q,2.378745,0,0,0,0,1,0,images/flickr_cat_000563.jpg,images/pixabay_cat_000023.jpg,bx,001,2021-06-03_16h43.55.724,Cat face experiment_250-499,2021.1.4,MacIntel,60.0024001
,,,,,,q,3.64287,0,1,1,1,1,1,images/flickr_cat_000564.jpg,images/pixabay_cat_000024.jpg,bx,001,2021-06-03_16h43.55.724,Cat face experiment_250-499,2021.1.4,MacIntel,60.0024001
,,,,,,p,1.96001,0,2,2,2,1,2,images/flickr_cat_000565.jpg,images/pixabay_cat_000025.jpg,bx,001,2021-06-03_16h43.55.724,Cat face experiment_250-499,2021.1.4,MacIntel,60.0024001
,,,,,,p,2.04852,0,3,3,3,1,3,images/flickr_cat_000566.jpg,images/pixabay_cat_000026.jpg,bx,001,2021-06-03_16h43.55.724,Cat face experiment_250-499,2021.1.4,MacIntel,60.0024001
,,,,,,q,0.81102,0,4,4,4,1,4,images/flickr_cat_000567.jpg,images/pixabay_cat_000027.jpg,bx,001,2021-06-03_16h43.55.724,Cat face experiment_250-499,2021.1.4,MacIntel,60.0024001
,,,,,,q,1.860685,0,5,5,5,1,5,images/flickr_cat_000568.jpg,images/pixabay_cat_000028.jpg,bx,001,2021-06-03_16h43.55.724,Cat face experiment_250-499,2021.1.4,MacIntel,60.0024001
,,,,,,p,0.876805,0,6,6,6,1,6,images/flickr_cat_000569.jpg,images/pixabay_cat_000029.jpg,bx,001,2021-06-03_16h43.55.724,Cat face experiment_250-499,2021.1.4,MacIntel,60.0024001
,,,,,,p,0.6926,0,7,7,7,1,7,images/flickr_cat_000571.jpg,images/pixabay_cat_000030.jpg,bx,001,2021-06-03_16h43.55.724,Cat face experiment_250-499,2021.1.4,MacIntel,60.0024001
,,,,,,p,1.0075,0,8,8,8,1,8,images/flickr_cat_000572.jpg,images/pixabay_cat_000031.jpg,bx,001,2021-06-03_16h43.55.724,Cat face experiment_250-499,2021.1.4,MacIntel,60.0024001
,,,,,,q,1.06073,0,9,9,9,1,9,images/flickr_cat_000573.jpg,images/pixabay_cat_000032.jpg,bx,001,2021-06-03_16h43.55.724,Cat face experiment_250-499,2021.1.4,MacIntel,60.0024001
,,,,,,p,1.331335,0,10,10,10,1,10,images/flickr_cat_000574.jpg,images/pixabay_cat_000033.jpg,bx,001,2021-06-03_16h43.55.724,Cat face experiment_250-499,2021.1.4,MacIntel,60.0024001
,,,,,,p,0.861255,0,11,11,11,1,11,images/flickr_cat_000576.jpg,images/pixabay_cat_000034.jpg,bx,001,2021-06-03_16h43.55.724,Cat face experiment_250-499,2021.1.4,MacIntel,60.0024001
,,,,,,p,1.110265,0,12,12,12,1,12,images/flickr_cat_000577.jpg,images/pixabay_cat_000035.jpg,bx,001,2021-06-03_16h43.55.724,Cat face experiment_250-499,2021.1.4,MacIntel,60.0024001
,,,,,,q,1.126775,0,13,13,13,1,13,images/flickr_cat_000578.jpg,images/pixabay_cat_000036.jpg,bx,001,2021-06-03_16h43.55.724,Cat face experiment_250-499,2021.1.4,MacIntel,60.0024001
,,,,,,p,1.840315,0,14,14,14,1,14,images/flickr_cat_000579.jpg,images/pixabay_cat_000038.jpg,bx,001,2021-06-03_16h43.55.724,Cat face experiment_250-499,2021.1.4,MacIntel,60.0024001
,,,,,,q,38.76153,0,15,15,15,1,15,images/flickr_cat_000580.jpg,images/pixabay_cat_000039.jpg,bx,001,2021-06-03_16h43.55.724,Cat face experiment_250-499,2021.1.4,MacIntel,60.0024001
,,,,,,q,1.415415,0,16,16,16,1,16,images/flickr_cat_000581.jpg,images/pixabay_cat_000041.jpg,bx,001,2021-06-03_16h43.55.724,Cat face experiment_250-499,2021.1.4,MacIntel,60.0024001
,,,,,,q,1.22702,0,17,17,17,1,17,images/flickr_cat_000582.jpg,images/pixabay_cat_000042.jpg,bx,001,2021-06-03_16h43.55.724,Cat face experiment_250-499,2021.1.4,MacIntel,60.0024001
,,,,,,p,7.713495,0,18,18,18,1,18,images/flickr_cat_000583.jpg,images/pixabay_cat_000043.jpg,bx,001,2021-06-03_16h43.55.724,Cat face experiment_250-499,2021.1.4,MacIntel,60.0024001
,,,,,,p,1.575675,0,19,19,19,1,19,images/flickr_cat_000584.jpg,images/pixabay_cat_000044.jpg,bx,001,2021-06-03_16h43.55.724,Cat face experiment_250-499,2021.1.4,MacIntel,60.0024001
,,,,,,p,1.03984,0,20,20,20,1,20,images/flickr_cat_000586.jpg,images/pixabay_cat_000045.jpg,bx,001,2021-06-03_16h43.55.724,Cat face experiment_250-499,2021.1.4,MacIntel,60.0024001
,,,,,,p,1.6433,0,21,21,21,1,21,images/flickr_cat_000587.jpg,images/pixabay_cat_000046.jpg,bx,001,2021-06-03_16h43.55.724,Cat face experiment_250-499,2021.1.4,MacIntel,60.0024001
,,,,,,q,1.65599,0,22,22,22,1,22,images/flickr_cat_000588.jpg,images/pixabay_cat_000047.jpg,bx,001,2021-06-03_16h43.55.724,Cat face experiment_250-499,2021.1.4,MacIntel,60.0024001
,,,,,,p,1.34463,0,23,23,23,1,23,images/flickr_cat_000589.jpg,images/pixabay_cat_000048.jpg,bx,001,2021-06-03_16h43.55.724,Cat face experiment_250-499,2021.1.4,MacIntel,60.0024001
,,,,,,p,1.608475,0,24,24,24,1,24,images/flickr_cat_000590.jpg,images/pixabay_cat_000049.jpg,bx,001,2021-06-03_16h43.55.724,Cat face experiment_250-499,2021.1.4,MacIntel,60.0024001
,,,,,,q,0.773,0,25,25,25,1,25,images/flickr_cat_000591.jpg,images/pixabay_cat_000050.jpg,bx,001,2021-06-03_16h43.55.724,Cat face experiment_250-499,2021.1.4,MacIntel,60.0024001
,,,,,,q,1.239245,0,26,26,26,1,26,images/flickr_cat_000593.jpg,images/pixabay_cat_000052.jpg,bx,001,2021-06-03_16h43.55.724,Cat face experiment_250-499,2021.1.4,MacIntel,60.0024001
,,,,,,p,6.291885,0,27,27,27,1,27,images/flickr_cat_000594.jpg,images/pixabay_cat_000053.jpg,bx,001,2021-06-03_16h43.55.724,Cat face experiment_250-499,2021.1.4,MacIntel,60.0024001
,,,,,,p,0.892605,0,28,28,28,1,28,images/flickr_cat_000595.jpg,images/pixabay_cat_000054.jpg,bx,001,2021-06-03_16h43.55.724,Cat face experiment_250-499,2021.1.4,MacIntel,60.0024001
,,,,,,p,0.97058,0,29,29,29,1,29,images/flickr_cat_000596.jpg,images/pixabay_cat_000055.jpg,bx,001,2021-06-03_16h43.55.724,Cat face experiment_250-499,2021.1.4,MacIntel,60.0024001
,,,,,,q,0.90778,0,30,30,30,1,30,images/flickr_cat_000597.jpg,images/pixabay_cat_000056.jpg,bx,001,2021-06-03_16h43.55.724,Cat face experiment_250-499,2021.1.4,MacIntel,60.0024001
,,,,,,p,1.073155,0,31,31,31,1,31,images/flickr_cat_000598.jpg,images/pixabay_cat_000057.jpg,bx,001,2021-06-03_16h43.55.724,Cat face experiment_250-499,2021.1.4,MacIntel,60.0024001
,,,,,,q,0.82532,0,32,32,32,1,32,images/flickr_cat_000600.jpg,images/pixabay_cat_000058.jpg,bx,001,2021-06-03_16h43.55.724,Cat face experiment_250-499,2021.1.4,MacIntel,60.0024001
,,,,,,p,0.609755,0,33,33,33,1,33,images/flickr_cat_000601.jpg,images/pixabay_cat_000059.jpg,bx,001,2021-06-03_16h43.55.724,Cat face experiment_250-499,2021.1.4,MacIntel,60.0024001
,,,,,,p,0.637795,0,34,34,34,1,34,images/flickr_cat_000602.jpg,images/pixabay_cat_000060.jpg,bx,001,2021-06-03_16h43.55.724,Cat face experiment_250-499,2021.1.4,MacIntel,60.0024001
,,,,,,p,0.759735,0,35,35,35,1,35,images/flickr_cat_000603.jpg,images/pixabay_cat_000061.jpg,bx,001,2021-06-03_16h43.55.724,Cat face experiment_250-499,2021.1.4,MacIntel,60.0024001
,,,,,,p,1.125235,0,36,36,36,1,36,images/flickr_cat_000604.jpg,images/pixabay_cat_000062.jpg,bx,001,2021-06-03_16h43.55.724,Cat face experiment_250-499,2021.1.4,MacIntel,60.0024001
,,,,,,p,0.755965,0,37,37,37,1,37,images/flickr_cat_000605.jpg,images/pixabay_cat_000063.jpg,bx,001,2021-06-03_16h43.55.724,Cat face experiment_250-499,2021.1.4,MacIntel,60.0024001
,,,,,,q,0.641625,0,38,38,38,1,38,images/flickr_cat_000606.jpg,images/pixabay_cat_000064.jpg,bx,001,2021-06-03_16h43.55.724,Cat face experiment_250-499,2021.1.4,MacIntel,60.0024001
,,,,,,p,1.471575,0,39,39,39,1,39,images/flickr_cat_000607.jpg,images/pixabay_cat_000065.jpg,bx,001,2021-06-03_16h43.55.724,Cat face experiment_250-499,2021.1.4,MacIntel,60.0024001
,,,,,,p,1.035175,0,40,40,40,1,40,images/flickr_cat_000609.jpg,images/pixabay_cat_000066.jpg,bx,001,2021-06-03_16h43.55.724,Cat face experiment_250-499,2021.1.4,MacIntel,60.0024001
,,,,,,p,0.9136,0,41,41,41,1,41,images/flickr_cat_000611.jpg,images/pixabay_cat_000067.jpg,bx,001,2021-06-03_16h43.55.724,Cat face experiment_250-499,2021.1.4,MacIntel,60.0024001
,,,,,,p,1.233695,0,42,42,42,1,42,images/flickr_cat_000612.jpg,images/pixabay_cat_000068.jpg,bx,001,2021-06-03_16h43.55.724,Cat face experiment_250-499,2021.1.4,MacIntel,60.0024001
,,,,,,p,0.64715,0,43,43,43,1,43,images/flickr_cat_000613.jpg,images/pixabay_cat_000069.jpg,bx,001,2021-06-03_16h43.55.724,Cat face experiment_250-499,2021.1.4,MacIntel,60.0024001
,,,,,,q,0.758315,0,44,44,44,1,44,images/flickr_cat_000615.jpg,images/pixabay_cat_000071.jpg,bx,001,2021-06-03_16h43.55.724,Cat face experiment_250-499,2021.1.4,MacIntel,60.0024001
,,,,,,p,0.810505,0,45,45,45,1,45,images/flickr_cat_000616.jpg,images/pixabay_cat_000072.jpg,bx,001,2021-06-03_16h43.55.724,Cat face experiment_250-499,2021.1.4,MacIntel,60.0024001
,,,,,,p,1.154735,0,46,46,46,1,46,images/flickr_cat_000617.jpg,images/pixabay_cat_000073.jpg,bx,001,2021-06-03_16h43.55.724,Cat face experiment_250-499,2021.1.4,MacIntel,60.0024001
,,,,,,q,2.027715,0,47,47,47,1,47,images/flickr_cat_000618.jpg,images/pixabay_cat_000074.jpg,bx,001,2021-06-03_16h43.55.724,Cat face experiment_250-499,2021.1.4,MacIntel,60.0024001
,,,,,,p,0.88996,0,48,48,48,1,48,images/flickr_cat_000619.jpg,images/pixabay_cat_000075.jpg,bx,001,2021-06-03_16h43.55.724,Cat face experiment_250-499,2021.1.4,MacIntel,60.0024001
,,,,,,p,0.677285,0,49,49,49,1,49,images/flickr_cat_000620.jpg,images/pixabay_cat_000077.jpg,bx,001,2021-06-03_16h43.55.724,Cat face experiment_250-499,2021.1.4,MacIntel,60.0024001
,,,,,,p,0.894185,0,50,50,50,1,50,images/flickr_cat_000621.jpg,images/pixabay_cat_000078.jpg,bx,001,2021-06-03_16h43.55.724,Cat face experiment_250-499,2021.1.4,MacIntel,60.0024001
,,,,,,q,1.25921,0,51,51,51,1,51,images/flickr_cat_000622.jpg,images/pixabay_cat_000079.jpg,bx,001,2021-06-03_16h43.55.724,Cat face experiment_250-499,2021.1.4,MacIntel,60.0024001
,,,,,,q,1.12644,0,52,52,52,1,52,images/flickr_cat_000623.jpg,images/pixabay_cat_000080.jpg,bx,001,2021-06-03_16h43.55.724,Cat face experiment_250-499,2021.1.4,MacIntel,60.0024001
,,,,,,p,0.65545,0,53,53,53,1,53,images/flickr_cat_000624.jpg,images/pixabay_cat_000082.jpg,bx,001,2021-06-03_16h43.55.724,Cat face experiment_250-499,2021.1.4,MacIntel,60.0024001
,,,,,,p,0.559245,0,54,54,54,1,54,images/flickr_cat_000625.jpg,images/pixabay_cat_000083.jpg,bx,001,2021-06-03_16h43.55.724,Cat face experiment_250-499,2021.1.4,MacIntel,60.0024001
,,,,,,p,0.83548,0,55,55,55,1,55,images/flickr_cat_000626.jpg,images/pixabay_cat_000084.jpg,bx,001,2021-06-03_16h43.55.724,Cat face experiment_250-499,2021.1.4,MacIntel,60.0024001
,,,,,,p,0.844055,0,56,56,56,1,56,images/flickr_cat_000627.jpg,images/pixabay_cat_000085.jpg,bx,001,2021-06-03_16h43.55.724,Cat face experiment_250-499,2021.1.4,MacIntel,60.0024001
,,,,,,p,0.627235,0,57,57,57,1,57,images/flickr_cat_000630.jpg,images/pixabay_cat_000086.jpg,bx,001,2021-06-03_16h43.55.724,Cat face experiment_250-499,2021.1.4,MacIntel,60.0024001
,,,,,,p,0.57051,0,58,58,58,1,58,images/flickr_cat_000631.jpg,images/pixabay_cat_000087.jpg,bx,001,2021-06-03_16h43.55.724,Cat face experiment_250-499,2021.1.4,MacIntel,60.0024001
,,,,,,p,1.21888,0,59,59,59,1,59,images/flickr_cat_000632.jpg,images/pixabay_cat_000088.jpg,bx,001,2021-06-03_16h43.55.724,Cat face experiment_250-499,2021.1.4,MacIntel,60.0024001
,,,,,,p,1.041395,0,60,60,60,1,60,images/flickr_cat_000633.jpg,images/pixabay_cat_000089.jpg,bx,001,2021-06-03_16h43.55.724,Cat face experiment_250-499,2021.1.4,MacIntel,60.0024001
,,,,,,p,1.143,0,61,61,61,1,61,images/flickr_cat_000634.jpg,images/pixabay_cat_000090.jpg,bx,001,2021-06-03_16h43.55.724,Cat face experiment_250-499,2021.1.4,MacIntel,60.0024001
,,,,,,p,0.77549,0,62,62,62,1,62,images/flickr_cat_000636.jpg,images/pixabay_cat_000091.jpg,bx,001,2021-06-03_16h43.55.724,Cat face experiment_250-499,2021.1.4,MacIntel,60.0024001
,,,,,,q,1.076235,0,63,63,63,1,63,images/flickr_cat_000638.jpg,images/pixabay_cat_000092.jpg,bx,001,2021-06-03_16h43.55.724,Cat face experiment_250-499,2021.1.4,MacIntel,60.0024001
,,,,,,q,1.022605,0,64,64,64,1,64,images/flickr_cat_000639.jpg,images/pixabay_cat_000093.jpg,bx,001,2021-06-03_16h43.55.724,Cat face experiment_250-499,2021.1.4,MacIntel,60.0024001
,,,,,,p,0.69541,0,65,65,65,1,65,images/flickr_cat_000640.jpg,images/pixabay_cat_000094.jpg,bx,001,2021-06-03_16h43.55.724,Cat face experiment_250-499,2021.1.4,MacIntel,60.0024001
,,,,,,p,0.538125,0,66,66,66,1,66,images/flickr_cat_000641.jpg,images/pixabay_cat_000095.jpg,bx,001,2021-06-03_16h43.55.724,Cat face experiment_250-499,2021.1.4,MacIntel,60.0024001
,,,,,,q,1.069915,0,67,67,67,1,67,images/flickr_cat_000642.jpg,images/pixabay_cat_000097.jpg,bx,001,2021-06-03_16h43.55.724,Cat face experiment_250-499,2021.1.4,MacIntel,60.0024001
,,,,,,p,0.794805,0,68,68,68,1,68,images/flickr_cat_000643.jpg,images/pixabay_cat_000098.jpg,bx,001,2021-06-03_16h43.55.724,Cat face experiment_250-499,2021.1.4,MacIntel,60.0024001
,,,,,,q,0.84116,0,69,69,69,1,69,images/flickr_cat_000644.jpg,images/pixabay_cat_000100.jpg,bx,001,2021-06-03_16h43.55.724,Cat face experiment_250-499,2021.1.4,MacIntel,60.0024001
,,,,,,p,0.61802,0,70,70,70,1,70,images/flickr_cat_000645.jpg,images/pixabay_cat_000101.jpg,bx,001,2021-06-03_16h43.55.724,Cat face experiment_250-499,2021.1.4,MacIntel,60.0024001
,,,,,,q,0.938935,0,71,71,71,1,71,images/flickr_cat_000646.jpg,images/pixabay_cat_000102.jpg,bx,001,2021-06-03_16h43.55.724,Cat face experiment_250-499,2021.1.4,MacIntel,60.0024001
,,,,,,p,0.665975,0,72,72,72,1,72,images/flickr_cat_000647.jpg,images/pixabay_cat_000103.jpg,bx,001,2021-06-03_16h43.55.724,Cat face experiment_250-499,2021.1.4,MacIntel,60.0024001
,,,,,,p,0.840105,0,73,73,73,1,73,images/flickr_cat_000648.jpg,images/pixabay_cat_000104.jpg,bx,001,2021-06-03_16h43.55.724,Cat face experiment_250-499,2021.1.4,MacIntel,60.0024001
,,,,,,p,0.59869,0,74,74,74,1,74,images/flickr_cat_000649.jpg,images/pixabay_cat_000105.jpg,bx,001,2021-06-03_16h43.55.724,Cat face experiment_250-499,2021.1.4,MacIntel,60.0024001
,,,,,,p,0.6428,0,75,75,75,1,75,images/flickr_cat_000650.jpg,images/pixabay_cat_000106.jpg,bx,001,2021-06-03_16h43.55.724,Cat face experiment_250-499,2021.1.4,MacIntel,60.0024001
,,,,,,p,0.59762,0,76,76,76,1,76,images/flickr_cat_000651.jpg,images/pixabay_cat_000107.jpg,bx,001,2021-06-03_16h43.55.724,Cat face experiment_250-499,2021.1.4,MacIntel,60.0024001
,,,,,,p,0.992285,0,77,77,77,1,77,images/flickr_cat_000652.jpg,images/pixabay_cat_000109.jpg,bx,001,2021-06-03_16h43.55.724,Cat face experiment_250-499,2021.1.4,MacIntel,60.0024001
,,,,,,q,0.9617,0,78,78,78,1,78,images/flickr_cat_000654.jpg,images/pixabay_cat_000110.jpg,bx,001,2021-06-03_16h43.55.724,Cat face experiment_250-499,2021.1.4,MacIntel,60.0024001
,,,,,,p,0.85935,0,79,79,79,1,79,images/flickr_cat_000655.jpg,images/pixabay_cat_000111.jpg,bx,001,2021-06-03_16h43.55.724,Cat face experiment_250-499,2021.1.4,MacIntel,60.0024001
,,,,,,p,0.806695,0,80,80,80,1,80,images/flickr_cat_000657.jpg,images/pixabay_cat_000112.jpg,bx,001,2021-06-03_16h43.55.724,Cat face experiment_250-499,2021.1.4,MacIntel,60.0024001
,,,,,,p,0.756245,0,81,81,81,1,81,images/flickr_cat_000658.jpg,images/pixabay_cat_000113.jpg,bx,001,2021-06-03_16h43.55.724,Cat face experiment_250-499,2021.1.4,MacIntel,60.0024001
,,,,,,p,0.55371,0,82,82,82,1,82,images/flickr_cat_000659.jpg,images/pixabay_cat_000114.jpg,bx,001,2021-06-03_16h43.55.724,Cat face experiment_250-499,2021.1.4,MacIntel,60.0024001
,,,,,,p,1.060325,0,83,83,83,1,83,images/flickr_cat_000660.jpg,images/pixabay_cat_000115.jpg,bx,001,2021-06-03_16h43.55.724,Cat face experiment_250-499,2021.1.4,MacIntel,60.0024001
,,,,,,q,0.815505,0,84,84,84,1,84,images/flickr_cat_000661.jpg,images/pixabay_cat_000116.jpg,bx,001,2021-06-03_16h43.55.724,Cat face experiment_250-499,2021.1.4,MacIntel,60.0024001
,,,,,,p,0.887765,0,85,85,85,1,85,images/flickr_cat_000662.jpg,images/pixabay_cat_000118.jpg,bx,001,2021-06-03_16h43.55.724,Cat face experiment_250-499,2021.1.4,MacIntel,60.0024001
,,,,,,p,0.819385,0,86,86,86,1,86,images/flickr_cat_000663.jpg,images/pixabay_cat_000119.jpg,bx,001,2021-06-03_16h43.55.724,Cat face experiment_250-499,2021.1.4,MacIntel,60.0024001
,,,,,,p,0.618265,0,87,87,87,1,87,images/flickr_cat_000664.jpg,images/pixabay_cat_000120.jpg,bx,001,2021-06-03_16h43.55.724,Cat face experiment_250-499,2021.1.4,MacIntel,60.0024001
,,,,,,q,0.835335,0,88,88,88,1,88,images/flickr_cat_000665.jpg,images/pixabay_cat_000121.jpg,bx,001,2021-06-03_16h43.55.724,Cat face experiment_250-499,2021.1.4,MacIntel,60.0024001
,,,,,,q,1.006985,0,89,89,89,1,89,images/flickr_cat_000666.jpg,images/pixabay_cat_000122.jpg,bx,001,2021-06-03_16h43.55.724,Cat face experiment_250-499,2021.1.4,MacIntel,60.0024001
,,,,,,p,0.702285,0,90,90,90,1,90,images/flickr_cat_000667.jpg,images/pixabay_cat_000123.jpg,bx,001,2021-06-03_16h43.55.724,Cat face experiment_250-499,2021.1.4,MacIntel,60.0024001
,,,,,,p,0.539245,0,91,91,91,1,91,images/flickr_cat_000668.jpg,images/pixabay_cat_000124.jpg,bx,001,2021-06-03_16h43.55.724,Cat face experiment_250-499,2021.1.4,MacIntel,60.0024001
,,,,,,p,0.719825,0,92,92,92,1,92,images/flickr_cat_000669.jpg,images/pixabay_cat_000125.jpg,bx,001,2021-06-03_16h43.55.724,Cat face experiment_250-499,2021.1.4,MacIntel,60.0024001
,,,,,,q,2.0943,0,93,93,93,1,93,images/flickr_cat_000670.jpg,images/pixabay_cat_000127.jpg,bx,001,2021-06-03_16h43.55.724,Cat face experiment_250-499,2021.1.4,MacIntel,60.0024001
,,,,,,q,0.842445,0,94,94,94,1,94,images/flickr_cat_000671.jpg,images/pixabay_cat_000128.jpg,bx,001,2021-06-03_16h43.55.724,Cat face experiment_250-499,2021.1.4,MacIntel,60.0024001
,,,,,,p,0.7161,0,95,95,95,1,95,images/flickr_cat_000672.jpg,images/pixabay_cat_000129.jpg,bx,001,2021-06-03_16h43.55.724,Cat face experiment_250-499,2021.1.4,MacIntel,60.0024001
,,,,,,p,0.52431,0,96,96,96,1,96,images/flickr_cat_000673.jpg,images/pixabay_cat_000130.jpg,bx,001,2021-06-03_16h43.55.724,Cat face experiment_250-499,2021.1.4,MacIntel,60.0024001
,,,,,,q,0.66303,0,97,97,97,1,97,images/flickr_cat_000674.jpg,images/pixabay_cat_000131.jpg,bx,001,2021-06-03_16h43.55.724,Cat face experiment_250-499,2021.1.4,MacIntel,60.0024001
,,,,,,p,0.936495,0,98,98,98,1,98,images/flickr_cat_000675.jpg,images/pixabay_cat_000132.jpg,bx,001,2021-06-03_16h43.55.724,Cat face experiment_250-499,2021.1.4,MacIntel,60.0024001
,,,,,,p,0.72038,0,99,99,99,1,99,images/flickr_cat_000677.jpg,images/pixabay_cat_000133.jpg,bx,001,2021-06-03_16h43.55.724,Cat face experiment_250-499,2021.1.4,MacIntel,60.0024001
,,,,,,q,1.73677,0,100,100,100,1,100,images/flickr_cat_000678.jpg,images/pixabay_cat_000134.jpg,bx,001,2021-06-03_16h43.55.724,Cat face experiment_250-499,2021.1.4,MacIntel,60.0024001
,,,,,,p,0.81569,0,101,101,101,1,101,images/flickr_cat_000679.jpg,images/pixabay_cat_000135.jpg,bx,001,2021-06-03_16h43.55.724,Cat face experiment_250-499,2021.1.4,MacIntel,60.0024001
,,,,,,p,0.945425,0,102,102,102,1,102,images/flickr_cat_000680.jpg,images/pixabay_cat_000136.jpg,bx,001,2021-06-03_16h43.55.724,Cat face experiment_250-499,2021.1.4,MacIntel,60.0024001
,,,,,,p,0.521415,0,103,103,103,1,103,images/flickr_cat_000681.jpg,images/pixabay_cat_000137.jpg,bx,001,2021-06-03_16h43.55.724,Cat face experiment_250-499,2021.1.4,MacIntel,60.0024001
,,,,,,p,0.9095,0,104,104,104,1,104,images/flickr_cat_000682.jpg,images/pixabay_cat_000138.jpg,bx,001,2021-06-03_16h43.55.724,Cat face experiment_250-499,2021.1.4,MacIntel,60.0024001
,,,,,,p,0.697785,0,105,105,105,1,105,images/flickr_cat_000683.jpg,images/pixabay_cat_000139.jpg,bx,001,2021-06-03_16h43.55.724,Cat face experiment_250-499,2021.1.4,MacIntel,60.0024001
,,,,,,p,0.66984,0,106,106,106,1,106,images/flickr_cat_000684.jpg,images/pixabay_cat_000140.jpg,bx,001,2021-06-03_16h43.55.724,Cat face experiment_250-499,2021.1.4,MacIntel,60.0024001
,,,,,,p,0.50808,0,107,107,107,1,107,images/flickr_cat_000685.jpg,images/pixabay_cat_000141.jpg,bx,001,2021-06-03_16h43.55.724,Cat face experiment_250-499,2021.1.4,MacIntel,60.0024001
,,,,,,q,0.641625,0,108,108,108,1,108,images/flickr_cat_000686.jpg,images/pixabay_cat_000142.jpg,bx,001,2021-06-03_16h43.55.724,Cat face experiment_250-499,2021.1.4,MacIntel,60.0024001
,,,,,,p,0.92794,0,109,109,109,1,109,images/flickr_cat_000687.jpg,images/pixabay_cat_000143.jpg,bx,001,2021-06-03_16h43.55.724,Cat face experiment_250-499,2021.1.4,MacIntel,60.0024001
,,,,,,q,0.574195,0,110,110,110,1,110,images/flickr_cat_000689.jpg,images/pixabay_cat_000144.jpg,bx,001,2021-06-03_16h43.55.724,Cat face experiment_250-499,2021.1.4,MacIntel,60.0024001
,,,,,,p,0.421565,0,111,111,111,1,111,images/flickr_cat_000690.jpg,images/pixabay_cat_000145.jpg,bx,001,2021-06-03_16h43.55.724,Cat face experiment_250-499,2021.1.4,MacIntel,60.0024001
,,,,,,p,0.620995,0,112,112,112,1,112,images/flickr_cat_000691.jpg,images/pixabay_cat_000146.jpg,bx,001,2021-06-03_16h43.55.724,Cat face experiment_250-499,2021.1.4,MacIntel,60.0024001
,,,,,,p,0.47418,0,113,113,113,1,113,images/flickr_cat_000692.jpg,images/pixabay_cat_000148.jpg,bx,001,2021-06-03_16h43.55.724,Cat face experiment_250-499,2021.1.4,MacIntel,60.0024001
,,,,,,p,0.683035,0,114,114,114,1,114,images/flickr_cat_000693.jpg,images/pixabay_cat_000149.jpg,bx,001,2021-06-03_16h43.55.724,Cat face experiment_250-499,2021.1.4,MacIntel,60.0024001
,,,,,,q,0.943215,0,115,115,115,1,115,images/flickr_cat_000694.jpg,images/pixabay_cat_000150.jpg,bx,001,2021-06-03_16h43.55.724,Cat face experiment_250-499,2021.1.4,MacIntel,60.0024001
,,,,,,p,0.5549,0,116,116,116,1,116,images/flickr_cat_000695.jpg,images/pixabay_cat_000152.jpg,bx,001,2021-06-03_16h43.55.724,Cat face experiment_250-499,2021.1.4,MacIntel,60.0024001
,,,,,,p,0.8366,0,117,117,117,1,117,images/flickr_cat_000696.jpg,images/pixabay_cat_000153.jpg,bx,001,2021-06-03_16h43.55.724,Cat face experiment_250-499,2021.1.4,MacIntel,60.0024001
,,,,,,p,0.960035,0,118,118,118,1,118,images/flickr_cat_000697.jpg,images/pixabay_cat_000154.jpg,bx,001,2021-06-03_16h43.55.724,Cat face experiment_250-499,2021.1.4,MacIntel,60.0024001
,,,,,,p,0.692165,0,119,119,119,1,119,images/flickr_cat_000698.jpg,images/pixabay_cat_000155.jpg,bx,001,2021-06-03_16h43.55.724,Cat face experiment_250-499,2021.1.4,MacIntel,60.0024001
,,,,,,p,0.78952,0,120,120,120,1,120,images/flickr_cat_000699.jpg,images/pixabay_cat_000156.jpg,bx,001,2021-06-03_16h43.55.724,Cat face experiment_250-499,2021.1.4,MacIntel,60.0024001
,,,,,,p,0.5915,0,121,121,121,1,121,images/flickr_cat_000700.jpg,images/pixabay_cat_000157.jpg,bx,001,2021-06-03_16h43.55.724,Cat face experiment_250-499,2021.1.4,MacIntel,60.0024001
,,,,,,p,0.607815,0,122,122,122,1,122,images/flickr_cat_000701.jpg,images/pixabay_cat_000158.jpg,bx,001,2021-06-03_16h43.55.724,Cat face experiment_250-499,2021.1.4,MacIntel,60.0024001
,,,,,,p,0.626405,0,123,123,123,1,123,images/flickr_cat_000702.jpg,images/pixabay_cat_000159.jpg,bx,001,2021-06-03_16h43.55.724,Cat face experiment_250-499,2021.1.4,MacIntel,60.0024001
,,,,,,p,0.72705,0,124,124,124,1,124,images/flickr_cat_000703.jpg,images/pixabay_cat_000160.jpg,bx,001,2021-06-03_16h43.55.724,Cat face experiment_250-499,2021.1.4,MacIntel,60.0024001
,,,,,,p,1.020595,0,125,125,125,1,125,images/flickr_cat_000704.jpg,images/pixabay_cat_000161.jpg,bx,001,2021-06-03_16h43.55.724,Cat face experiment_250-499,2021.1.4,MacIntel,60.0024001
,,,,,,q,0.75797,0,126,126,126,1,126,images/flickr_cat_000705.jpg,images/pixabay_cat_000162.jpg,bx,001,2021-06-03_16h43.55.724,Cat face experiment_250-499,2021.1.4,MacIntel,60.0024001
,,,,,,q,0.70897,0,127,127,127,1,127,images/flickr_cat_000706.jpg,images/pixabay_cat_000163.jpg,bx,001,2021-06-03_16h43.55.724,Cat face experiment_250-499,2021.1.4,MacIntel,60.0024001
,,,,,,p,0.528835,0,128,128,128,1,128,images/flickr_cat_000707.jpg,images/pixabay_cat_000164.jpg,bx,001,2021-06-03_16h43.55.724,Cat face experiment_250-499,2021.1.4,MacIntel,60.0024001
,,,,,,p,0.87232,0,129,129,129,1,129,images/flickr_cat_000708.jpg,images/pixabay_cat_000166.jpg,bx,001,2021-06-03_16h43.55.724,Cat face experiment_250-499,2021.1.4,MacIntel,60.0024001
,,,,,,p,0.76195,0,130,130,130,1,130,images/flickr_cat_000710.jpg,images/pixabay_cat_000167.jpg,bx,001,2021-06-03_16h43.55.724,Cat face experiment_250-499,2021.1.4,MacIntel,60.0024001
,,,,,,q,21.709475,0,131,131,131,1,131,images/flickr_cat_000711.jpg,images/pixabay_cat_000168.jpg,bx,001,2021-06-03_16h43.55.724,Cat face experiment_250-499,2021.1.4,MacIntel,60.0024001
,,,,,,p,0.73727,0,132,132,132,1,132,images/flickr_cat_000712.jpg,images/pixabay_cat_000170.jpg,bx,001,2021-06-03_16h43.55.724,Cat face experiment_250-499,2021.1.4,MacIntel,60.0024001
,,,,,,p,0.96415,0,133,133,133,1,133,images/flickr_cat_000713.jpg,images/pixabay_cat_000171.jpg,bx,001,2021-06-03_16h43.55.724,Cat face experiment_250-499,2021.1.4,MacIntel,60.0024001
,,,,,,p,0.75876,0,134,134,134,1,134,images/flickr_cat_000715.jpg,images/pixabay_cat_000172.jpg,bx,001,2021-06-03_16h43.55.724,Cat face experiment_250-499,2021.1.4,MacIntel,60.0024001
,,,,,,p,0.80972,0,135,135,135,1,135,images/flickr_cat_000716.jpg,images/pixabay_cat_000173.jpg,bx,001,2021-06-03_16h43.55.724,Cat face experiment_250-499,2021.1.4,MacIntel,60.0024001
,,,,,,p,0.607655,0,136,136,136,1,136,images/flickr_cat_000717.jpg,images/pixabay_cat_000174.jpg,bx,001,2021-06-03_16h43.55.724,Cat face experiment_250-499,2021.1.4,MacIntel,60.0024001
,,,,,,q,0.844515,0,137,137,137,1,137,images/flickr_cat_000718.jpg,images/pixabay_cat_000175.jpg,bx,001,2021-06-03_16h43.55.724,Cat face experiment_250-499,2021.1.4,MacIntel,60.0024001
,,,,,,q,1.07599,0,138,138,138,1,138,images/flickr_cat_000719.jpg,images/pixabay_cat_000176.jpg,bx,001,2021-06-03_16h43.55.724,Cat face experiment_250-499,2021.1.4,MacIntel,60.0024001
,,,,,,q,0.74405,0,139,139,139,1,139,images/flickr_cat_000720.jpg,images/pixabay_cat_000177.jpg,bx,001,2021-06-03_16h43.55.724,Cat face experiment_250-499,2021.1.4,MacIntel,60.0024001
,,,,,,p,0.677705,0,140,140,140,1,140,images/flickr_cat_000721.jpg,images/pixabay_cat_000179.jpg,bx,001,2021-06-03_16h43.55.724,Cat face experiment_250-499,2021.1.4,MacIntel,60.0024001
,,,,,,q,0.97563,0,141,141,141,1,141,images/flickr_cat_000722.jpg,images/pixabay_cat_000180.jpg,bx,001,2021-06-03_16h43.55.724,Cat face experiment_250-499,2021.1.4,MacIntel,60.0024001
,,,,,,p,0.774805,0,142,142,142,1,142,images/flickr_cat_000723.jpg,images/pixabay_cat_000182.jpg,bx,001,2021-06-03_16h43.55.724,Cat face experiment_250-499,2021.1.4,MacIntel,60.0024001
,,,,,,p,0.770105,0,143,143,143,1,143,images/flickr_cat_000724.jpg,images/pixabay_cat_000183.jpg,bx,001,2021-06-03_16h43.55.724,Cat face experiment_250-499,2021.1.4,MacIntel,60.0024001
,,,,,,p,0.86757,0,144,144,144,1,144,images/flickr_cat_000725.jpg,images/pixabay_cat_000184.jpg,bx,001,2021-06-03_16h43.55.724,Cat face experiment_250-499,2021.1.4,MacIntel,60.0024001
,,,,,,p,0.542875,0,145,145,145,1,145,images/flickr_cat_000726.jpg,images/pixabay_cat_000185.jpg,bx,001,2021-06-03_16h43.55.724,Cat face experiment_250-499,2021.1.4,MacIntel,60.0024001
,,,,,,q,0.897965,0,146,146,146,1,146,images/flickr_cat_000727.jpg,images/pixabay_cat_000186.jpg,bx,001,2021-06-03_16h43.55.724,Cat face experiment_250-499,2021.1.4,MacIntel,60.0024001
,,,,,,p,0.93767,0,147,147,147,1,147,images/flickr_cat_000728.jpg,images/pixabay_cat_000187.jpg,bx,001,2021-06-03_16h43.55.724,Cat face experiment_250-499,2021.1.4,MacIntel,60.0024001
,,,,,,p,0.668305,0,148,148,148,1,148,images/flickr_cat_000729.jpg,images/pixabay_cat_000188.jpg,bx,001,2021-06-03_16h43.55.724,Cat face experiment_250-499,2021.1.4,MacIntel,60.0024001
,,,,,,q,1.369475,0,149,149,149,1,149,images/flickr_cat_000730.jpg,images/pixabay_cat_000189.jpg,bx,001,2021-06-03_16h43.55.724,Cat face experiment_250-499,2021.1.4,MacIntel,60.0024001
,,,,,,q,0.90686,0,150,150,150,1,150,images/flickr_cat_000731.jpg,images/pixabay_cat_000191.jpg,bx,001,2021-06-03_16h43.55.724,Cat face experiment_250-499,2021.1.4,MacIntel,60.0024001
,,,,,,p,1.60499,0,151,151,151,1,151,images/flickr_cat_000732.jpg,images/pixabay_cat_000192.jpg,bx,001,2021-06-03_16h43.55.724,Cat face experiment_250-499,2021.1.4,MacIntel,60.0024001
,,,,,,p,0.70632,0,152,152,152,1,152,images/flickr_cat_000733.jpg,images/pixabay_cat_000193.jpg,bx,001,2021-06-03_16h43.55.724,Cat face experiment_250-499,2021.1.4,MacIntel,60.0024001
,,,,,,p,0.971035,0,153,153,153,1,153,images/flickr_cat_000734.jpg,images/pixabay_cat_000194.jpg,bx,001,2021-06-03_16h43.55.724,Cat face experiment_250-499,2021.1.4,MacIntel,60.0024001
,,,,,,q,1.83041,0,154,154,154,1,154,images/flickr_cat_000735.jpg,images/pixabay_cat_000195.jpg,bx,001,2021-06-03_16h43.55.724,Cat face experiment_250-499,2021.1.4,MacIntel,60.0024001
,,,,,,q,0.872055,0,155,155,155,1,155,images/flickr_cat_000736.jpg,images/pixabay_cat_000196.jpg,bx,001,2021-06-03_16h43.55.724,Cat face experiment_250-499,2021.1.4,MacIntel,60.0024001
,,,,,,p,0.764135,0,156,156,156,1,156,images/flickr_cat_000737.jpg,images/pixabay_cat_000197.jpg,bx,001,2021-06-03_16h43.55.724,Cat face experiment_250-499,2021.1.4,MacIntel,60.0024001
,,,,,,q,0.913845,0,157,157,157,1,157,images/flickr_cat_000738.jpg,images/pixabay_cat_000198.jpg,bx,001,2021-06-03_16h43.55.724,Cat face experiment_250-499,2021.1.4,MacIntel,60.0024001
,,,,,,q,2.412465,0,158,158,158,1,158,images/flickr_cat_000739.jpg,images/pixabay_cat_000199.jpg,bx,001,2021-06-03_16h43.55.724,Cat face experiment_250-499,2021.1.4,MacIntel,60.0024001
,,,,,,q,1.02128,0,159,159,159,1,159,images/flickr_cat_000740.jpg,images/pixabay_cat_000200.jpg,bx,001,2021-06-03_16h43.55.724,Cat face experiment_250-499,2021.1.4,MacIntel,60.0024001
,,,,,,q,0.97324,0,160,160,160,1,160,images/flickr_cat_000741.jpg,images/pixabay_cat_000201.jpg,bx,001,2021-06-03_16h43.55.724,Cat face experiment_250-499,2021.1.4,MacIntel,60.0024001
,,,,,,q,2.202415,0,161,161,161,1,161,images/flickr_cat_000742.jpg,images/pixabay_cat_000203.jpg,bx,001,2021-06-03_16h43.55.724,Cat face experiment_250-499,2021.1.4,MacIntel,60.0024001
,,,,,,p,0.73843,0,162,162,162,1,162,images/flickr_cat_000743.jpg,images/pixabay_cat_000204.jpg,bx,001,2021-06-03_16h43.55.724,Cat face experiment_250-499,2021.1.4,MacIntel,60.0024001
,,,,,,p,0.735365,0,163,163,163,1,163,images/flickr_cat_000744.jpg,images/pixabay_cat_000205.jpg,bx,001,2021-06-03_16h43.55.724,Cat face experiment_250-499,2021.1.4,MacIntel,60.0024001
,,,,,,p,0.825785,0,164,164,164,1,164,images/flickr_cat_000745.jpg,images/pixabay_cat_000206.jpg,bx,001,2021-06-03_16h43.55.724,Cat face experiment_250-499,2021.1.4,MacIntel,60.0024001
,,,,,,q,1.011305,0,165,165,165,1,165,images/flickr_cat_000748.jpg,images/pixabay_cat_000207.jpg,bx,001,2021-06-03_16h43.55.724,Cat face experiment_250-499,2021.1.4,MacIntel,60.0024001
,,,,,,p,0.70249,0,166,166,166,1,166,images/flickr_cat_000749.jpg,images/pixabay_cat_000208.jpg,bx,001,2021-06-03_16h43.55.724,Cat face experiment_250-499,2021.1.4,MacIntel,60.0024001
,,,,,,q,0.75184,0,167,167,167,1,167,images/flickr_cat_000750.jpg,images/pixabay_cat_000209.jpg,bx,001,2021-06-03_16h43.55.724,Cat face experiment_250-499,2021.1.4,MacIntel,60.0024001
,,,,,,q,0.805005,0,168,168,168,1,168,images/flickr_cat_000752.jpg,images/pixabay_cat_000210.jpg,bx,001,2021-06-03_16h43.55.724,Cat face experiment_250-499,2021.1.4,MacIntel,60.0024001
,,,,,,p,1.29204,0,169,169,169,1,169,images/flickr_cat_000753.jpg,images/pixabay_cat_000211.jpg,bx,001,2021-06-03_16h43.55.724,Cat face experiment_250-499,2021.1.4,MacIntel,60.0024001
,,,,,,p,0.690215,0,170,170,170,1,170,images/flickr_cat_000754.jpg,images/pixabay_cat_000212.jpg,bx,001,2021-06-03_16h43.55.724,Cat face experiment_250-499,2021.1.4,MacIntel,60.0024001
,,,,,,p,0.808975,0,171,171,171,1,171,images/flickr_cat_000755.jpg,images/pixabay_cat_000213.jpg,bx,001,2021-06-03_16h43.55.724,Cat face experiment_250-499,2021.1.4,MacIntel,60.0024001
,,,,,,p,0.646225,0,172,172,172,1,172,images/flickr_cat_000756.jpg,images/pixabay_cat_000214.jpg,bx,001,2021-06-03_16h43.55.724,Cat face experiment_250-499,2021.1.4,MacIntel,60.0024001
,,,,,,p,1.0561,0,173,173,173,1,173,images/flickr_cat_000757.jpg,images/pixabay_cat_000215.jpg,bx,001,2021-06-03_16h43.55.724,Cat face experiment_250-499,2021.1.4,MacIntel,60.0024001
,,,,,,q,1.05871,0,174,174,174,1,174,images/flickr_cat_000758.jpg,images/pixabay_cat_000216.jpg,bx,001,2021-06-03_16h43.55.724,Cat face experiment_250-499,2021.1.4,MacIntel,60.0024001
,,,,,,q,0.71915,0,175,175,175,1,175,images/flickr_cat_000760.jpg,images/pixabay_cat_000217.jpg,bx,001,2021-06-03_16h43.55.724,Cat face experiment_250-499,2021.1.4,MacIntel,60.0024001
,,,,,,p,0.73724,0,176,176,176,1,176,images/flickr_cat_000762.jpg,images/pixabay_cat_000218.jpg,bx,001,2021-06-03_16h43.55.724,Cat face experiment_250-499,2021.1.4,MacIntel,60.0024001
,,,,,,p,0.6116,0,177,177,177,1,177,images/flickr_cat_000763.jpg,images/pixabay_cat_000219.jpg,bx,001,2021-06-03_16h43.55.724,Cat face experiment_250-499,2021.1.4,MacIntel,60.0024001
,,,,,,q,1.364585,0,178,178,178,1,178,images/flickr_cat_000764.jpg,images/pixabay_cat_000220.jpg,bx,001,2021-06-03_16h43.55.724,Cat face experiment_250-499,2021.1.4,MacIntel,60.0024001
,,,,,,p,0.92432,0,179,179,179,1,179,images/flickr_cat_000765.jpg,images/pixabay_cat_000221.jpg,bx,001,2021-06-03_16h43.55.724,Cat face experiment_250-499,2021.1.4,MacIntel,60.0024001
,,,,,,q,1.000805,0,180,180,180,1,180,images/flickr_cat_000767.jpg,images/pixabay_cat_000222.jpg,bx,001,2021-06-03_16h43.55.724,Cat face experiment_250-499,2021.1.4,MacIntel,60.0024001
,,,,,,q,0.829005,0,181,181,181,1,181,images/flickr_cat_000768.jpg,images/pixabay_cat_000223.jpg,bx,001,2021-06-03_16h43.55.724,Cat face experiment_250-499,2021.1.4,MacIntel,60.0024001
,,,,,,p,1.62415,0,182,182,182,1,182,images/flickr_cat_000770.jpg,images/pixabay_cat_000224.jpg,bx,001,2021-06-03_16h43.55.724,Cat face experiment_250-499,2021.1.4,MacIntel,60.0024001
,,,,,,p,0.58774,0,183,183,183,1,183,images/flickr_cat_000771.jpg,images/pixabay_cat_000225.jpg,bx,001,2021-06-03_16h43.55.724,Cat face experiment_250-499,2021.1.4,MacIntel,60.0024001
,,,,,,q,1.08894,0,184,184,184,1,184,images/flickr_cat_000772.jpg,images/pixabay_cat_000226.jpg,bx,001,2021-06-03_16h43.55.724,Cat face experiment_250-499,2021.1.4,MacIntel,60.0024001
,,,,,,p,0.76171,0,185,185,185,1,185,images/flickr_cat_000773.jpg,images/pixabay_cat_000227.jpg,bx,001,2021-06-03_16h43.55.724,Cat face experiment_250-499,2021.1.4,MacIntel,60.0024001
,,,,,,q,1.98926,0,186,186,186,1,186,images/flickr_cat_000774.jpg,images/pixabay_cat_000228.jpg,bx,001,2021-06-03_16h43.55.724,Cat face experiment_250-499,2021.1.4,MacIntel,60.0024001
,,,,,,q,0.97715,0,187,187,187,1,187,images/flickr_cat_000775.jpg,images/pixabay_cat_000229.jpg,bx,001,2021-06-03_16h43.55.724,Cat face experiment_250-499,2021.1.4,MacIntel,60.0024001
,,,,,,p,0.84089,0,188,188,188,1,188,images/flickr_cat_000776.jpg,images/pixabay_cat_000230.jpg,bx,001,2021-06-03_16h43.55.724,Cat face experiment_250-499,2021.1.4,MacIntel,60.0024001
,,,,,,p,0.95675,0,189,189,189,1,189,images/flickr_cat_000777.jpg,images/pixabay_cat_000232.jpg,bx,001,2021-06-03_16h43.55.724,Cat face experiment_250-499,2021.1.4,MacIntel,60.0024001
,,,,,,q,0.952215,0,190,190,190,1,190,images/flickr_cat_000778.jpg,images/pixabay_cat_000233.jpg,bx,001,2021-06-03_16h43.55.724,Cat face experiment_250-499,2021.1.4,MacIntel,60.0024001
,,,,,,q,1.36113,0,191,191,191,1,191,images/flickr_cat_000779.jpg,images/pixabay_cat_000234.jpg,bx,001,2021-06-03_16h43.55.724,Cat face experiment_250-499,2021.1.4,MacIntel,60.0024001
,,,,,,p,0.87273,0,192,192,192,1,192,images/flickr_cat_000780.jpg,images/pixabay_cat_000235.jpg,bx,001,2021-06-03_16h43.55.724,Cat face experiment_250-499,2021.1.4,MacIntel,60.0024001
,,,,,,p,0.890065,0,193,193,193,1,193,images/flickr_cat_000781.jpg,images/pixabay_cat_000236.jpg,bx,001,2021-06-03_16h43.55.724,Cat face experiment_250-499,2021.1.4,MacIntel,60.0024001
,,,,,,p,0.786815,0,194,194,194,1,194,images/flickr_cat_000782.jpg,images/pixabay_cat_000237.jpg,bx,001,2021-06-03_16h43.55.724,Cat face experiment_250-499,2021.1.4,MacIntel,60.0024001
,,,,,,p,1.22594,0,195,195,195,1,195,images/flickr_cat_000783.jpg,images/pixabay_cat_000238.jpg,bx,001,2021-06-03_16h43.55.724,Cat face experiment_250-499,2021.1.4,MacIntel,60.0024001
,,,,,,p,0.8614,0,196,196,196,1,196,images/flickr_cat_000784.jpg,images/pixabay_cat_000239.jpg,bx,001,2021-06-03_16h43.55.724,Cat face experiment_250-499,2021.1.4,MacIntel,60.0024001
,,,,,,p,1.576945,0,197,197,197,1,197,images/flickr_cat_000785.jpg,images/pixabay_cat_000240.jpg,bx,001,2021-06-03_16h43.55.724,Cat face experiment_250-499,2021.1.4,MacIntel,60.0024001
,,,,,,q,1.25692,0,198,198,198,1,198,images/flickr_cat_000786.jpg,images/pixabay_cat_000242.jpg,bx,001,2021-06-03_16h43.55.724,Cat face experiment_250-499,2021.1.4,MacIntel,60.0024001
,,,,,,p,1.059515,0,199,199,199,1,199,images/flickr_cat_000787.jpg,images/pixabay_cat_000243.jpg,bx,001,2021-06-03_16h43.55.724,Cat face experiment_250-499,2021.1.4,MacIntel,60.0024001
,,,,,,p,1.970415,0,200,200,200,1,200,images/flickr_cat_000788.jpg,images/pixabay_cat_000244.jpg,bx,001,2021-06-03_16h43.55.724,Cat face experiment_250-499,2021.1.4,MacIntel,60.0024001
,,,,,,p,1.22626,0,201,201,201,1,201,images/flickr_cat_000789.jpg,images/pixabay_cat_000245.jpg,bx,001,2021-06-03_16h43.55.724,Cat face experiment_250-499,2021.1.4,MacIntel,60.0024001
,,,,,,q,1.510285,0,202,202,202,1,202,images/flickr_cat_000790.jpg,images/pixabay_cat_000246.jpg,bx,001,2021-06-03_16h43.55.724,Cat face experiment_250-499,2021.1.4,MacIntel,60.0024001
,,,,,,q,1.19132,0,203,203,203,1,203,images/flickr_cat_000791.jpg,images/pixabay_cat_000247.jpg,bx,001,2021-06-03_16h43.55.724,Cat face experiment_250-499,2021.1.4,MacIntel,60.0024001
,,,,,,q,1.109515,0,204,204,204,1,204,images/flickr_cat_000792.jpg,images/pixabay_cat_000249.jpg,bx,001,2021-06-03_16h43.55.724,Cat face experiment_250-499,2021.1.4,MacIntel,60.0024001
,,,,,,q,1.223465,0,205,205,205,1,205,images/flickr_cat_000793.jpg,images/pixabay_cat_000250.jpg,bx,001,2021-06-03_16h43.55.724,Cat face experiment_250-499,2021.1.4,MacIntel,60.0024001
,,,,,,q,0.944875,0,206,206,206,1,206,images/flickr_cat_000794.jpg,images/pixabay_cat_000251.jpg,bx,001,2021-06-03_16h43.55.724,Cat face experiment_250-499,2021.1.4,MacIntel,60.0024001
,,,,,,q,1.3563,0,207,207,207,1,207,images/flickr_cat_000795.jpg,images/pixabay_cat_000252.jpg,bx,001,2021-06-03_16h43.55.724,Cat face experiment_250-499,2021.1.4,MacIntel,60.0024001
,,,,,,p,0.933715,0,208,208,208,1,208,images/flickr_cat_000796.jpg,images/pixabay_cat_000253.jpg,bx,001,2021-06-03_16h43.55.724,Cat face experiment_250-499,2021.1.4,MacIntel,60.0024001
,,,,,,q,0.901905,0,209,209,209,1,209,images/flickr_cat_000797.jpg,images/pixabay_cat_000254.jpg,bx,001,2021-06-03_16h43.55.724,Cat face experiment_250-499,2021.1.4,MacIntel,60.0024001
,,,,,,p,0.930685,0,210,210,210,1,210,images/flickr_cat_000798.jpg,images/pixabay_cat_000255.jpg,bx,001,2021-06-03_16h43.55.724,Cat face experiment_250-499,2021.1.4,MacIntel,60.0024001
,,,,,,q,0.847135,0,211,211,211,1,211,images/flickr_cat_000799.jpg,images/pixabay_cat_000256.jpg,bx,001,2021-06-03_16h43.55.724,Cat face experiment_250-499,2021.1.4,MacIntel,60.0024001
,,,,,,q,2.05524,0,212,212,212,1,212,images/flickr_cat_000800.jpg,images/pixabay_cat_000257.jpg,bx,001,2021-06-03_16h43.55.724,Cat face experiment_250-499,2021.1.4,MacIntel,60.0024001
,,,,,,p,1.434055,0,213,213,213,1,213,images/flickr_cat_000801.jpg,images/pixabay_cat_000258.jpg,bx,001,2021-06-03_16h43.55.724,Cat face experiment_250-499,2021.1.4,MacIntel,60.0024001
,,,,,,q,1.00176,0,214,214,214,1,214,images/flickr_cat_000803.jpg,images/pixabay_cat_000259.jpg,bx,001,2021-06-03_16h43.55.724,Cat face experiment_250-499,2021.1.4,MacIntel,60.0024001
,,,,,,q,0.795245,0,215,215,215,1,215,images/flickr_cat_000804.jpg,images/pixabay_cat_000260.jpg,bx,001,2021-06-03_16h43.55.724,Cat face experiment_250-499,2021.1.4,MacIntel,60.0024001
,,,,,,q,0.87434,0,216,216,216,1,216,images/flickr_cat_000805.jpg,images/pixabay_cat_000261.jpg,bx,001,2021-06-03_16h43.55.724,Cat face experiment_250-499,2021.1.4,MacIntel,60.0024001
,,,,,,q,0.77267,0,217,217,217,1,217,images/flickr_cat_000806.jpg,images/pixabay_cat_000262.jpg,bx,001,2021-06-03_16h43.55.724,Cat face experiment_250-499,2021.1.4,MacIntel,60.0024001
,,,,,,q,1.02279,0,218,218,218,1,218,images/flickr_cat_000807.jpg,images/pixabay_cat_000263.jpg,bx,001,2021-06-03_16h43.55.724,Cat face experiment_250-499,2021.1.4,MacIntel,60.0024001
,,,,,,p,0.69437,0,219,219,219,1,219,images/flickr_cat_000808.jpg,images/pixabay_cat_000264.jpg,bx,001,2021-06-03_16h43.55.724,Cat face experiment_250-499,2021.1.4,MacIntel,60.0024001
,,,,,,q,1.0279,0,220,220,220,1,220,images/flickr_cat_000809.jpg,images/pixabay_cat_000265.jpg,bx,001,2021-06-03_16h43.55.724,Cat face experiment_250-499,2021.1.4,MacIntel,60.0024001
,,,,,,q,0.861095,0,221,221,221,1,221,images/flickr_cat_000810.jpg,images/pixabay_cat_000266.jpg,bx,001,2021-06-03_16h43.55.724,Cat face experiment_250-499,2021.1.4,MacIntel,60.0024001
,,,,,,q,0.996145,0,222,222,222,1,222,images/flickr_cat_000811.jpg,images/pixabay_cat_000267.jpg,bx,001,2021-06-03_16h43.55.724,Cat face experiment_250-499,2021.1.4,MacIntel,60.0024001
,,,,,,q,1.09318,0,223,223,223,1,223,images/flickr_cat_000812.jpg,images/pixabay_cat_000268.jpg,bx,001,2021-06-03_16h43.55.724,Cat face experiment_250-499,2021.1.4,MacIntel,60.0024001
,,,,,,p,0.887715,0,224,224,224,1,224,images/flickr_cat_000813.jpg,images/pixabay_cat_000269.jpg,bx,001,2021-06-03_16h43.55.724,Cat face experiment_250-499,2021.1.4,MacIntel,60.0024001
,,,,,,q,0.91363,0,225,225,225,1,225,images/flickr_cat_000815.jpg,images/pixabay_cat_000270.jpg,bx,001,2021-06-03_16h43.55.724,Cat face experiment_250-499,2021.1.4,MacIntel,60.0024001
,,,,,,q,1.14358,0,226,226,226,1,226,images/flickr_cat_000817.jpg,images/pixabay_cat_000271.jpg,bx,001,2021-06-03_16h43.55.724,Cat face experiment_250-499,2021.1.4,MacIntel,60.0024001
,,,,,,q,1.043615,0,227,227,227,1,227,images/flickr_cat_000818.jpg,images/pixabay_cat_000272.jpg,bx,001,2021-06-03_16h43.55.724,Cat face experiment_250-499,2021.1.4,MacIntel,60.0024001
,,,,,,q,1.46949,0,228,228,228,1,228,images/flickr_cat_000819.jpg,images/pixabay_cat_000273.jpg,bx,001,2021-06-03_16h43.55.724,Cat face experiment_250-499,2021.1.4,MacIntel,60.0024001
,,,,,,q,1.125055,0,229,229,229,1,229,images/flickr_cat_000820.jpg,images/pixabay_cat_000274.jpg,bx,001,2021-06-03_16h43.55.724,Cat face experiment_250-499,2021.1.4,MacIntel,60.0024001
,,,,,,p,1.236065,0,230,230,230,1,230,images/flickr_cat_000821.jpg,images/pixabay_cat_000275.jpg,bx,001,2021-06-03_16h43.55.724,Cat face experiment_250-499,2021.1.4,MacIntel,60.0024001
,,,,,,p,1.42483,0,231,231,231,1,231,images/pixabay_cat_000002.jpg,images/pixabay_cat_000277.jpg,bx,001,2021-06-03_16h43.55.724,Cat face experiment_250-499,2021.1.4,MacIntel,60.0024001
,,,,,,p,1.276115,0,232,232,232,1,232,images/pixabay_cat_000003.jpg,images/pixabay_cat_000278.jpg,bx,001,2021-06-03_16h43.55.724,Cat face experiment_250-499,2021.1.4,MacIntel,60.0024001
,,,,,,q,0.959255,0,233,233,233,1,233,images/pixabay_cat_000004.jpg,images/pixabay_cat_000279.jpg,bx,001,2021-06-03_16h43.55.724,Cat face experiment_250-499,2021.1.4,MacIntel,60.0024001
,,,,,,p,0.77552,0,234,234,234,1,234,images/pixabay_cat_000005.jpg,images/pixabay_cat_000280.jpg,bx,001,2021-06-03_16h43.55.724,Cat face experiment_250-499,2021.1.4,MacIntel,60.0024001
,,,,,,q,0.85262,0,235,235,235,1,235,images/pixabay_cat_000006.jpg,images/pixabay_cat_000281.jpg,bx,001,2021-06-03_16h43.55.724,Cat face experiment_250-499,2021.1.4,MacIntel,60.0024001
,,,,,,q,1.354985,0,236,236,236,1,236,images/pixabay_cat_000008.jpg,images/pixabay_cat_000282.jpg,bx,001,2021-06-03_16h43.55.724,Cat face experiment_250-499,2021.1.4,MacIntel,60.0024001
,,,,,,p,0.902805,0,237,237,237,1,237,images/pixabay_cat_000009.jpg,images/pixabay_cat_000283.jpg,bx,001,2021-06-03_16h43.55.724,Cat face experiment_250-499,2021.1.4,MacIntel,60.0024001
,,,,,,q,1.597395,0,238,238,238,1,238,images/pixabay_cat_000011.jpg,images/pixabay_cat_000284.jpg,bx,001,2021-06-03_16h43.55.724,Cat face experiment_250-499,2021.1.4,MacIntel,60.0024001
,,,,,,q,0.727665,0,239,239,239,1,239,images/pixabay_cat_000012.jpg,images/pixabay_cat_000285.jpg,bx,001,2021-06-03_16h43.55.724,Cat face experiment_250-499,2021.1.4,MacIntel,60.0024001
,,,,,,q,0.927505,0,240,240,240,1,240,images/pixabay_cat_000013.jpg,images/pixabay_cat_000286.jpg,bx,001,2021-06-03_16h43.55.724,Cat face experiment_250-499,2021.1.4,MacIntel,60.0024001
,,,,,,q,0.89381,0,241,241,241,1,241,images/pixabay_cat_000014.jpg,images/pixabay_cat_000287.jpg,bx,001,2021-06-03_16h43.55.724,Cat face experiment_250-499,2021.1.4,MacIntel,60.0024001
,,,,,,p,1.125845,0,242,242,242,1,242,images/pixabay_cat_000015.jpg,images/pixabay_cat_000288.jpg,bx,001,2021-06-03_16h43.55.724,Cat face experiment_250-499,2021.1.4,MacIntel,60.0024001
,,,,,,q,1.19117,0,243,243,243,1,243,images/pixabay_cat_000016.jpg,images/pixabay_cat_000289.jpg,bx,001,2021-06-03_16h43.55.724,Cat face experiment_250-499,2021.1.4,MacIntel,60.0024001
,,,,,,q,0.99574,0,244,244,244,1,244,images/pixabay_cat_000017.jpg,images/pixabay_cat_000290.jpg,bx,001,2021-06-03_16h43.55.724,Cat face experiment_250-499,2021.1.4,MacIntel,60.0024001
,,,,,,q,1.05862,0,245,245,245,1,245,images/pixabay_cat_000018.jpg,images/pixabay_cat_000292.jpg,bx,001,2021-06-03_16h43.55.724,Cat face experiment_250-499,2021.1.4,MacIntel,60.0024001
,,,,,,q,1.13599,0,246,246,246,1,246,images/pixabay_cat_000019.jpg,images/pixabay_cat_000293.jpg,bx,001,2021-06-03_16h43.55.724,Cat face experiment_250-499,2021.1.4,MacIntel,60.0024001
,,,,,,p,1.1751,0,247,247,247,1,247,images/pixabay_cat_000020.jpg,images/pixabay_cat_000294.jpg,bx,001,2021-06-03_16h43.55.724,Cat face experiment_250-499,2021.1.4,MacIntel,60.0024001
,,,,,,q,0.86089,0,248,248,248,1,248,images/pixabay_cat_000021.jpg,images/pixabay_cat_000295.jpg,bx,001,2021-06-03_16h43.55.724,Cat face experiment_250-499,2021.1.4,MacIntel,60.0024001
,,,,,,p,1.04015,0,249,249,249,1,249,images/pixabay_cat_000022.jpg,images/pixabay_cat_000297.jpg,bx,001,2021-06-03_16h43.55.724,Cat face experiment_250-499,2021.1.4,MacIntel,60.0024001
