key_resp.keys,key_resp.rt,key_resp_2.keys,key_resp_2.rt,key_resp_3.keys,key_resp_3.rt,key_resp_4.keys,key_resp_4.rt,trials.thisRepN,trials.thisTrialN,trials.thisN,trials.thisIndex,trials.ran,trail_nums,img1,img2,participant,session,date,expName,psychopyVersion,OS,frameRate
space,1.1993,space,0.6814,space,0.3508,q,4.8954,0,0,0,0,1,0,images/flickr_cat_000563.jpg,images/pixabay_cat_000023.jpg,Eddy,001,2021-08-27_13h14.38.071,Cat face experiment_250-499,2021.1.4,Win32,142.4704374
,,,,,,q,1.7819,0,1,1,1,1,1,images/flickr_cat_000564.jpg,images/pixabay_cat_000024.jpg,Eddy,001,2021-08-27_13h14.38.071,Cat face experiment_250-499,2021.1.4,Win32,142.4704374
,,,,,,p,0.863,0,2,2,2,1,2,images/flickr_cat_000565.jpg,images/pixabay_cat_000025.jpg,Eddy,001,2021-08-27_13h14.38.071,Cat face experiment_250-499,2021.1.4,Win32,142.4704374
,,,,,,q,0.8738,0,3,3,3,1,3,images/flickr_cat_000566.jpg,images/pixabay_cat_000026.jpg,Eddy,001,2021-08-27_13h14.38.071,Cat face experiment_250-499,2021.1.4,Win32,142.4704374
,,,,,,q,2.978,0,4,4,4,1,4,images/flickr_cat_000567.jpg,images/pixabay_cat_000027.jpg,Eddy,001,2021-08-27_13h14.38.071,Cat face experiment_250-499,2021.1.4,Win32,142.4704374
,,,,,,q,1.5209,0,5,5,5,1,5,images/flickr_cat_000568.jpg,images/pixabay_cat_000028.jpg,Eddy,001,2021-08-27_13h14.38.071,Cat face experiment_250-499,2021.1.4,Win32,142.4704374
,,,,,,p,1.0981,0,6,6,6,1,6,images/flickr_cat_000569.jpg,images/pixabay_cat_000029.jpg,Eddy,001,2021-08-27_13h14.38.071,Cat face experiment_250-499,2021.1.4,Win32,142.4704374
,,,,,,q,1.0451,0,7,7,7,1,7,images/flickr_cat_000571.jpg,images/pixabay_cat_000030.jpg,Eddy,001,2021-08-27_13h14.38.071,Cat face experiment_250-499,2021.1.4,Win32,142.4704374
,,,,,,p,0.7784,0,8,8,8,1,8,images/flickr_cat_000572.jpg,images/pixabay_cat_000031.jpg,Eddy,001,2021-08-27_13h14.38.071,Cat face experiment_250-499,2021.1.4,Win32,142.4704374
,,,,,,q,0.8063,0,9,9,9,1,9,images/flickr_cat_000573.jpg,images/pixabay_cat_000032.jpg,Eddy,001,2021-08-27_13h14.38.071,Cat face experiment_250-499,2021.1.4,Win32,142.4704374
,,,,,,p,0.8513,0,10,10,10,1,10,images/flickr_cat_000574.jpg,images/pixabay_cat_000033.jpg,Eddy,001,2021-08-27_13h14.38.071,Cat face experiment_250-499,2021.1.4,Win32,142.4704374
,,,,,,q,1.2063,0,11,11,11,1,11,images/flickr_cat_000576.jpg,images/pixabay_cat_000034.jpg,Eddy,001,2021-08-27_13h14.38.071,Cat face experiment_250-499,2021.1.4,Win32,142.4704374
,,,,,,p,0.7059,0,12,12,12,1,12,images/flickr_cat_000577.jpg,images/pixabay_cat_000035.jpg,Eddy,001,2021-08-27_13h14.38.071,Cat face experiment_250-499,2021.1.4,Win32,142.4704374
,,,,,,q,0.8044,0,13,13,13,1,13,images/flickr_cat_000578.jpg,images/pixabay_cat_000036.jpg,Eddy,001,2021-08-27_13h14.38.071,Cat face experiment_250-499,2021.1.4,Win32,142.4704374
,,,,,,p,1.7001,0,14,14,14,1,14,images/flickr_cat_000579.jpg,images/pixabay_cat_000038.jpg,Eddy,001,2021-08-27_13h14.38.071,Cat face experiment_250-499,2021.1.4,Win32,142.4704374
,,,,,,q,1.2411,0,15,15,15,1,15,images/flickr_cat_000580.jpg,images/pixabay_cat_000039.jpg,Eddy,001,2021-08-27_13h14.38.071,Cat face experiment_250-499,2021.1.4,Win32,142.4704374
,,,,,,q,1.2062,0,16,16,16,1,16,images/flickr_cat_000581.jpg,images/pixabay_cat_000041.jpg,Eddy,001,2021-08-27_13h14.38.071,Cat face experiment_250-499,2021.1.4,Win32,142.4704374
,,,,,,q,2.068,0,17,17,17,1,17,images/flickr_cat_000582.jpg,images/pixabay_cat_000042.jpg,Eddy,001,2021-08-27_13h14.38.071,Cat face experiment_250-499,2021.1.4,Win32,142.4704374
,,,,,,p,0.8475,0,18,18,18,1,18,images/flickr_cat_000583.jpg,images/pixabay_cat_000043.jpg,Eddy,001,2021-08-27_13h14.38.071,Cat face experiment_250-499,2021.1.4,Win32,142.4704374
,,,,,,p,1.0813,0,19,19,19,1,19,images/flickr_cat_000584.jpg,images/pixabay_cat_000044.jpg,Eddy,001,2021-08-27_13h14.38.071,Cat face experiment_250-499,2021.1.4,Win32,142.4704374
,,,,,,p,1.2076,0,20,20,20,1,20,images/flickr_cat_000586.jpg,images/pixabay_cat_000045.jpg,Eddy,001,2021-08-27_13h14.38.071,Cat face experiment_250-499,2021.1.4,Win32,142.4704374
,,,,,,p,0.7754,0,21,21,21,1,21,images/flickr_cat_000587.jpg,images/pixabay_cat_000046.jpg,Eddy,001,2021-08-27_13h14.38.071,Cat face experiment_250-499,2021.1.4,Win32,142.4704374
,,,,,,q,1.1595,0,22,22,22,1,22,images/flickr_cat_000588.jpg,images/pixabay_cat_000047.jpg,Eddy,001,2021-08-27_13h14.38.071,Cat face experiment_250-499,2021.1.4,Win32,142.4704374
,,,,,,p,0.7544,0,23,23,23,1,23,images/flickr_cat_000589.jpg,images/pixabay_cat_000048.jpg,Eddy,001,2021-08-27_13h14.38.071,Cat face experiment_250-499,2021.1.4,Win32,142.4704374
,,,,,,p,1.2637,0,24,24,24,1,24,images/flickr_cat_000590.jpg,images/pixabay_cat_000049.jpg,Eddy,001,2021-08-27_13h14.38.071,Cat face experiment_250-499,2021.1.4,Win32,142.4704374
,,,,,,q,0.9148,0,25,25,25,1,25,images/flickr_cat_000591.jpg,images/pixabay_cat_000050.jpg,Eddy,001,2021-08-27_13h14.38.071,Cat face experiment_250-499,2021.1.4,Win32,142.4704374
,,,,,,q,0.912,0,26,26,26,1,26,images/flickr_cat_000593.jpg,images/pixabay_cat_000052.jpg,Eddy,001,2021-08-27_13h14.38.071,Cat face experiment_250-499,2021.1.4,Win32,142.4704374
,,,,,,q,1.1662,0,27,27,27,1,27,images/flickr_cat_000594.jpg,images/pixabay_cat_000053.jpg,Eddy,001,2021-08-27_13h14.38.071,Cat face experiment_250-499,2021.1.4,Win32,142.4704374
,,,,,,p,1.7144,0,28,28,28,1,28,images/flickr_cat_000595.jpg,images/pixabay_cat_000054.jpg,Eddy,001,2021-08-27_13h14.38.071,Cat face experiment_250-499,2021.1.4,Win32,142.4704374
,,,,,,q,1.0783,0,29,29,29,1,29,images/flickr_cat_000596.jpg,images/pixabay_cat_000055.jpg,Eddy,001,2021-08-27_13h14.38.071,Cat face experiment_250-499,2021.1.4,Win32,142.4704374
,,,,,,p,1.7561,0,30,30,30,1,30,images/flickr_cat_000597.jpg,images/pixabay_cat_000056.jpg,Eddy,001,2021-08-27_13h14.38.071,Cat face experiment_250-499,2021.1.4,Win32,142.4704374
,,,,,,p,1.3952,0,31,31,31,1,31,images/flickr_cat_000598.jpg,images/pixabay_cat_000057.jpg,Eddy,001,2021-08-27_13h14.38.071,Cat face experiment_250-499,2021.1.4,Win32,142.4704374
,,,,,,p,1.6228,0,32,32,32,1,32,images/flickr_cat_000600.jpg,images/pixabay_cat_000058.jpg,Eddy,001,2021-08-27_13h14.38.071,Cat face experiment_250-499,2021.1.4,Win32,142.4704374
,,,,,,q,1.0643,0,33,33,33,1,33,images/flickr_cat_000601.jpg,images/pixabay_cat_000059.jpg,Eddy,001,2021-08-27_13h14.38.071,Cat face experiment_250-499,2021.1.4,Win32,142.4704374
,,,,,,p,1.7072,0,34,34,34,1,34,images/flickr_cat_000602.jpg,images/pixabay_cat_000060.jpg,Eddy,001,2021-08-27_13h14.38.071,Cat face experiment_250-499,2021.1.4,Win32,142.4704374
,,,,,,p,0.9569,0,35,35,35,1,35,images/flickr_cat_000603.jpg,images/pixabay_cat_000061.jpg,Eddy,001,2021-08-27_13h14.38.071,Cat face experiment_250-499,2021.1.4,Win32,142.4704374
,,,,,,p,0.783,0,36,36,36,1,36,images/flickr_cat_000604.jpg,images/pixabay_cat_000062.jpg,Eddy,001,2021-08-27_13h14.38.071,Cat face experiment_250-499,2021.1.4,Win32,142.4704374
,,,,,,p,1.0517,0,37,37,37,1,37,images/flickr_cat_000605.jpg,images/pixabay_cat_000063.jpg,Eddy,001,2021-08-27_13h14.38.071,Cat face experiment_250-499,2021.1.4,Win32,142.4704374
,,,,,,p,0.9051,0,38,38,38,1,38,images/flickr_cat_000606.jpg,images/pixabay_cat_000064.jpg,Eddy,001,2021-08-27_13h14.38.071,Cat face experiment_250-499,2021.1.4,Win32,142.4704374
,,,,,,p,1.9712,0,39,39,39,1,39,images/flickr_cat_000607.jpg,images/pixabay_cat_000065.jpg,Eddy,001,2021-08-27_13h14.38.071,Cat face experiment_250-499,2021.1.4,Win32,142.4704374
,,,,,,q,0.8514,0,40,40,40,1,40,images/flickr_cat_000609.jpg,images/pixabay_cat_000066.jpg,Eddy,001,2021-08-27_13h14.38.071,Cat face experiment_250-499,2021.1.4,Win32,142.4704374
,,,,,,p,1.2556,0,41,41,41,1,41,images/flickr_cat_000611.jpg,images/pixabay_cat_000067.jpg,Eddy,001,2021-08-27_13h14.38.071,Cat face experiment_250-499,2021.1.4,Win32,142.4704374
,,,,,,p,1.517,0,42,42,42,1,42,images/flickr_cat_000612.jpg,images/pixabay_cat_000068.jpg,Eddy,001,2021-08-27_13h14.38.071,Cat face experiment_250-499,2021.1.4,Win32,142.4704374
,,,,,,q,1.0408,0,43,43,43,1,43,images/flickr_cat_000613.jpg,images/pixabay_cat_000069.jpg,Eddy,001,2021-08-27_13h14.38.071,Cat face experiment_250-499,2021.1.4,Win32,142.4704374
,,,,,,q,1.4633,0,44,44,44,1,44,images/flickr_cat_000615.jpg,images/pixabay_cat_000071.jpg,Eddy,001,2021-08-27_13h14.38.071,Cat face experiment_250-499,2021.1.4,Win32,142.4704374
,,,,,,p,0.6733,0,45,45,45,1,45,images/flickr_cat_000616.jpg,images/pixabay_cat_000072.jpg,Eddy,001,2021-08-27_13h14.38.071,Cat face experiment_250-499,2021.1.4,Win32,142.4704374
,,,,,,q,1.0121,0,46,46,46,1,46,images/flickr_cat_000617.jpg,images/pixabay_cat_000073.jpg,Eddy,001,2021-08-27_13h14.38.071,Cat face experiment_250-499,2021.1.4,Win32,142.4704374
,,,,,,q,1.0435,0,47,47,47,1,47,images/flickr_cat_000618.jpg,images/pixabay_cat_000074.jpg,Eddy,001,2021-08-27_13h14.38.071,Cat face experiment_250-499,2021.1.4,Win32,142.4704374
,,,,,,q,1.279,0,48,48,48,1,48,images/flickr_cat_000619.jpg,images/pixabay_cat_000075.jpg,Eddy,001,2021-08-27_13h14.38.071,Cat face experiment_250-499,2021.1.4,Win32,142.4704374
,,,,,,p,0.8905,0,49,49,49,1,49,images/flickr_cat_000620.jpg,images/pixabay_cat_000077.jpg,Eddy,001,2021-08-27_13h14.38.071,Cat face experiment_250-499,2021.1.4,Win32,142.4704374
,,,,,,p,0.827,0,50,50,50,1,50,images/flickr_cat_000621.jpg,images/pixabay_cat_000078.jpg,Eddy,001,2021-08-27_13h14.38.071,Cat face experiment_250-499,2021.1.4,Win32,142.4704374
,,,,,,p,1.0124,0,51,51,51,1,51,images/flickr_cat_000622.jpg,images/pixabay_cat_000079.jpg,Eddy,001,2021-08-27_13h14.38.071,Cat face experiment_250-499,2021.1.4,Win32,142.4704374
,,,,,,p,1.1675,0,52,52,52,1,52,images/flickr_cat_000623.jpg,images/pixabay_cat_000080.jpg,Eddy,001,2021-08-27_13h14.38.071,Cat face experiment_250-499,2021.1.4,Win32,142.4704374
,,,,,,p,1.5485,0,53,53,53,1,53,images/flickr_cat_000624.jpg,images/pixabay_cat_000082.jpg,Eddy,001,2021-08-27_13h14.38.071,Cat face experiment_250-499,2021.1.4,Win32,142.4704374
,,,,,,p,1.0742,0,54,54,54,1,54,images/flickr_cat_000625.jpg,images/pixabay_cat_000083.jpg,Eddy,001,2021-08-27_13h14.38.071,Cat face experiment_250-499,2021.1.4,Win32,142.4704374
,,,,,,q,1.3908,0,55,55,55,1,55,images/flickr_cat_000626.jpg,images/pixabay_cat_000084.jpg,Eddy,001,2021-08-27_13h14.38.071,Cat face experiment_250-499,2021.1.4,Win32,142.4704374
,,,,,,q,1.0525,0,56,56,56,1,56,images/flickr_cat_000627.jpg,images/pixabay_cat_000085.jpg,Eddy,001,2021-08-27_13h14.38.071,Cat face experiment_250-499,2021.1.4,Win32,142.4704374
,,,,,,p,0.7046,0,57,57,57,1,57,images/flickr_cat_000630.jpg,images/pixabay_cat_000086.jpg,Eddy,001,2021-08-27_13h14.38.071,Cat face experiment_250-499,2021.1.4,Win32,142.4704374
,,,,,,q,0.9074,0,58,58,58,1,58,images/flickr_cat_000631.jpg,images/pixabay_cat_000087.jpg,Eddy,001,2021-08-27_13h14.38.071,Cat face experiment_250-499,2021.1.4,Win32,142.4704374
,,,,,,q,0.9425,0,59,59,59,1,59,images/flickr_cat_000632.jpg,images/pixabay_cat_000088.jpg,Eddy,001,2021-08-27_13h14.38.071,Cat face experiment_250-499,2021.1.4,Win32,142.4704374
,,,,,,p,0.9594,0,60,60,60,1,60,images/flickr_cat_000633.jpg,images/pixabay_cat_000089.jpg,Eddy,001,2021-08-27_13h14.38.071,Cat face experiment_250-499,2021.1.4,Win32,142.4704374
,,,,,,p,1.0194,0,61,61,61,1,61,images/flickr_cat_000634.jpg,images/pixabay_cat_000090.jpg,Eddy,001,2021-08-27_13h14.38.071,Cat face experiment_250-499,2021.1.4,Win32,142.4704374
,,,,,,q,1.4093,0,62,62,62,1,62,images/flickr_cat_000636.jpg,images/pixabay_cat_000091.jpg,Eddy,001,2021-08-27_13h14.38.071,Cat face experiment_250-499,2021.1.4,Win32,142.4704374
,,,,,,p,0.9151,0,63,63,63,1,63,images/flickr_cat_000638.jpg,images/pixabay_cat_000092.jpg,Eddy,001,2021-08-27_13h14.38.071,Cat face experiment_250-499,2021.1.4,Win32,142.4704374
,,,,,,p,1.0498,0,64,64,64,1,64,images/flickr_cat_000639.jpg,images/pixabay_cat_000093.jpg,Eddy,001,2021-08-27_13h14.38.071,Cat face experiment_250-499,2021.1.4,Win32,142.4704374
,,,,,,q,0.9379,0,65,65,65,1,65,images/flickr_cat_000640.jpg,images/pixabay_cat_000094.jpg,Eddy,001,2021-08-27_13h14.38.071,Cat face experiment_250-499,2021.1.4,Win32,142.4704374
,,,,,,p,1.5131,0,66,66,66,1,66,images/flickr_cat_000641.jpg,images/pixabay_cat_000095.jpg,Eddy,001,2021-08-27_13h14.38.071,Cat face experiment_250-499,2021.1.4,Win32,142.4704374
,,,,,,p,0.7929,0,67,67,67,1,67,images/flickr_cat_000642.jpg,images/pixabay_cat_000097.jpg,Eddy,001,2021-08-27_13h14.38.071,Cat face experiment_250-499,2021.1.4,Win32,142.4704374
,,,,,,q,1.0041,0,68,68,68,1,68,images/flickr_cat_000643.jpg,images/pixabay_cat_000098.jpg,Eddy,001,2021-08-27_13h14.38.071,Cat face experiment_250-499,2021.1.4,Win32,142.4704374
,,,,,,q,1.2341,0,69,69,69,1,69,images/flickr_cat_000644.jpg,images/pixabay_cat_000100.jpg,Eddy,001,2021-08-27_13h14.38.071,Cat face experiment_250-499,2021.1.4,Win32,142.4704374
,,,,,,p,2.7166,0,70,70,70,1,70,images/flickr_cat_000645.jpg,images/pixabay_cat_000101.jpg,Eddy,001,2021-08-27_13h14.38.071,Cat face experiment_250-499,2021.1.4,Win32,142.4704374
,,,,,,q,1.0358,0,71,71,71,1,71,images/flickr_cat_000646.jpg,images/pixabay_cat_000102.jpg,Eddy,001,2021-08-27_13h14.38.071,Cat face experiment_250-499,2021.1.4,Win32,142.4704374
,,,,,,p,0.8111,0,72,72,72,1,72,images/flickr_cat_000647.jpg,images/pixabay_cat_000103.jpg,Eddy,001,2021-08-27_13h14.38.071,Cat face experiment_250-499,2021.1.4,Win32,142.4704374
,,,,,,p,1.3218,0,73,73,73,1,73,images/flickr_cat_000648.jpg,images/pixabay_cat_000104.jpg,Eddy,001,2021-08-27_13h14.38.071,Cat face experiment_250-499,2021.1.4,Win32,142.4704374
,,,,,,p,1.4376,0,74,74,74,1,74,images/flickr_cat_000649.jpg,images/pixabay_cat_000105.jpg,Eddy,001,2021-08-27_13h14.38.071,Cat face experiment_250-499,2021.1.4,Win32,142.4704374
,,,,,,p,0.7686,0,75,75,75,1,75,images/flickr_cat_000650.jpg,images/pixabay_cat_000106.jpg,Eddy,001,2021-08-27_13h14.38.071,Cat face experiment_250-499,2021.1.4,Win32,142.4704374
,,,,,,p,0.8178,0,76,76,76,1,76,images/flickr_cat_000651.jpg,images/pixabay_cat_000107.jpg,Eddy,001,2021-08-27_13h14.38.071,Cat face experiment_250-499,2021.1.4,Win32,142.4704374
,,,,,,p,1.1504,0,77,77,77,1,77,images/flickr_cat_000652.jpg,images/pixabay_cat_000109.jpg,Eddy,001,2021-08-27_13h14.38.071,Cat face experiment_250-499,2021.1.4,Win32,142.4704374
,,,,,,p,1.0887,0,78,78,78,1,78,images/flickr_cat_000654.jpg,images/pixabay_cat_000110.jpg,Eddy,001,2021-08-27_13h14.38.071,Cat face experiment_250-499,2021.1.4,Win32,142.4704374
,,,,,,p,0.9434,0,79,79,79,1,79,images/flickr_cat_000655.jpg,images/pixabay_cat_000111.jpg,Eddy,001,2021-08-27_13h14.38.071,Cat face experiment_250-499,2021.1.4,Win32,142.4704374
,,,,,,q,0.8489,0,80,80,80,1,80,images/flickr_cat_000657.jpg,images/pixabay_cat_000112.jpg,Eddy,001,2021-08-27_13h14.38.071,Cat face experiment_250-499,2021.1.4,Win32,142.4704374
,,,,,,p,0.792,0,81,81,81,1,81,images/flickr_cat_000658.jpg,images/pixabay_cat_000113.jpg,Eddy,001,2021-08-27_13h14.38.071,Cat face experiment_250-499,2021.1.4,Win32,142.4704374
,,,,,,p,1.3357,0,82,82,82,1,82,images/flickr_cat_000659.jpg,images/pixabay_cat_000114.jpg,Eddy,001,2021-08-27_13h14.38.071,Cat face experiment_250-499,2021.1.4,Win32,142.4704374
,,,,,,p,1.8036,0,83,83,83,1,83,images/flickr_cat_000660.jpg,images/pixabay_cat_000115.jpg,Eddy,001,2021-08-27_13h14.38.071,Cat face experiment_250-499,2021.1.4,Win32,142.4704374
,,,,,,q,0.799,0,84,84,84,1,84,images/flickr_cat_000661.jpg,images/pixabay_cat_000116.jpg,Eddy,001,2021-08-27_13h14.38.071,Cat face experiment_250-499,2021.1.4,Win32,142.4704374
,,,,,,p,1.0676,0,85,85,85,1,85,images/flickr_cat_000662.jpg,images/pixabay_cat_000118.jpg,Eddy,001,2021-08-27_13h14.38.071,Cat face experiment_250-499,2021.1.4,Win32,142.4704374
,,,,,,p,1.2913,0,86,86,86,1,86,images/flickr_cat_000663.jpg,images/pixabay_cat_000119.jpg,Eddy,001,2021-08-27_13h14.38.071,Cat face experiment_250-499,2021.1.4,Win32,142.4704374
,,,,,,p,1.1009,0,87,87,87,1,87,images/flickr_cat_000664.jpg,images/pixabay_cat_000120.jpg,Eddy,001,2021-08-27_13h14.38.071,Cat face experiment_250-499,2021.1.4,Win32,142.4704374
,,,,,,q,0.8399,0,88,88,88,1,88,images/flickr_cat_000665.jpg,images/pixabay_cat_000121.jpg,Eddy,001,2021-08-27_13h14.38.071,Cat face experiment_250-499,2021.1.4,Win32,142.4704374
,,,,,,p,1.4843,0,89,89,89,1,89,images/flickr_cat_000666.jpg,images/pixabay_cat_000122.jpg,Eddy,001,2021-08-27_13h14.38.071,Cat face experiment_250-499,2021.1.4,Win32,142.4704374
,,,,,,q,0.9554,0,90,90,90,1,90,images/flickr_cat_000667.jpg,images/pixabay_cat_000123.jpg,Eddy,001,2021-08-27_13h14.38.071,Cat face experiment_250-499,2021.1.4,Win32,142.4704374
,,,,,,p,1.542,0,91,91,91,1,91,images/flickr_cat_000668.jpg,images/pixabay_cat_000124.jpg,Eddy,001,2021-08-27_13h14.38.071,Cat face experiment_250-499,2021.1.4,Win32,142.4704374
,,,,,,q,0.831,0,92,92,92,1,92,images/flickr_cat_000669.jpg,images/pixabay_cat_000125.jpg,Eddy,001,2021-08-27_13h14.38.071,Cat face experiment_250-499,2021.1.4,Win32,142.4704374
,,,,,,p,1.6544,0,93,93,93,1,93,images/flickr_cat_000670.jpg,images/pixabay_cat_000127.jpg,Eddy,001,2021-08-27_13h14.38.071,Cat face experiment_250-499,2021.1.4,Win32,142.4704374
,,,,,,q,1.4855,0,94,94,94,1,94,images/flickr_cat_000671.jpg,images/pixabay_cat_000128.jpg,Eddy,001,2021-08-27_13h14.38.071,Cat face experiment_250-499,2021.1.4,Win32,142.4704374
,,,,,,p,2.3563,0,95,95,95,1,95,images/flickr_cat_000672.jpg,images/pixabay_cat_000129.jpg,Eddy,001,2021-08-27_13h14.38.071,Cat face experiment_250-499,2021.1.4,Win32,142.4704374
,,,,,,q,1.2001,0,96,96,96,1,96,images/flickr_cat_000673.jpg,images/pixabay_cat_000130.jpg,Eddy,001,2021-08-27_13h14.38.071,Cat face experiment_250-499,2021.1.4,Win32,142.4704374
,,,,,,q,1.2243,0,97,97,97,1,97,images/flickr_cat_000674.jpg,images/pixabay_cat_000131.jpg,Eddy,001,2021-08-27_13h14.38.071,Cat face experiment_250-499,2021.1.4,Win32,142.4704374
,,,,,,p,0.8275,0,98,98,98,1,98,images/flickr_cat_000675.jpg,images/pixabay_cat_000132.jpg,Eddy,001,2021-08-27_13h14.38.071,Cat face experiment_250-499,2021.1.4,Win32,142.4704374
,,,,,,p,1.2451,0,99,99,99,1,99,images/flickr_cat_000677.jpg,images/pixabay_cat_000133.jpg,Eddy,001,2021-08-27_13h14.38.071,Cat face experiment_250-499,2021.1.4,Win32,142.4704374
,,,,,,q,0.852,0,100,100,100,1,100,images/flickr_cat_000678.jpg,images/pixabay_cat_000134.jpg,Eddy,001,2021-08-27_13h14.38.071,Cat face experiment_250-499,2021.1.4,Win32,142.4704374
,,,,,,p,1.4391,0,101,101,101,1,101,images/flickr_cat_000679.jpg,images/pixabay_cat_000135.jpg,Eddy,001,2021-08-27_13h14.38.071,Cat face experiment_250-499,2021.1.4,Win32,142.4704374
,,,,,,p,1.4285,0,102,102,102,1,102,images/flickr_cat_000680.jpg,images/pixabay_cat_000136.jpg,Eddy,001,2021-08-27_13h14.38.071,Cat face experiment_250-499,2021.1.4,Win32,142.4704374
,,,,,,p,2.2711,0,103,103,103,1,103,images/flickr_cat_000681.jpg,images/pixabay_cat_000137.jpg,Eddy,001,2021-08-27_13h14.38.071,Cat face experiment_250-499,2021.1.4,Win32,142.4704374
,,,,,,q,0.9705,0,104,104,104,1,104,images/flickr_cat_000682.jpg,images/pixabay_cat_000138.jpg,Eddy,001,2021-08-27_13h14.38.071,Cat face experiment_250-499,2021.1.4,Win32,142.4704374
,,,,,,p,0.8128,0,105,105,105,1,105,images/flickr_cat_000683.jpg,images/pixabay_cat_000139.jpg,Eddy,001,2021-08-27_13h14.38.071,Cat face experiment_250-499,2021.1.4,Win32,142.4704374
,,,,,,p,0.9035,0,106,106,106,1,106,images/flickr_cat_000684.jpg,images/pixabay_cat_000140.jpg,Eddy,001,2021-08-27_13h14.38.071,Cat face experiment_250-499,2021.1.4,Win32,142.4704374
,,,,,,p,1.0893,0,107,107,107,1,107,images/flickr_cat_000685.jpg,images/pixabay_cat_000141.jpg,Eddy,001,2021-08-27_13h14.38.071,Cat face experiment_250-499,2021.1.4,Win32,142.4704374
,,,,,,q,0.8661,0,108,108,108,1,108,images/flickr_cat_000686.jpg,images/pixabay_cat_000142.jpg,Eddy,001,2021-08-27_13h14.38.071,Cat face experiment_250-499,2021.1.4,Win32,142.4704374
,,,,,,p,2.6165,0,109,109,109,1,109,images/flickr_cat_000687.jpg,images/pixabay_cat_000143.jpg,Eddy,001,2021-08-27_13h14.38.071,Cat face experiment_250-499,2021.1.4,Win32,142.4704374
,,,,,,p,1.0463,0,110,110,110,1,110,images/flickr_cat_000689.jpg,images/pixabay_cat_000144.jpg,Eddy,001,2021-08-27_13h14.38.071,Cat face experiment_250-499,2021.1.4,Win32,142.4704374
,,,,,,q,1.9283,0,111,111,111,1,111,images/flickr_cat_000690.jpg,images/pixabay_cat_000145.jpg,Eddy,001,2021-08-27_13h14.38.071,Cat face experiment_250-499,2021.1.4,Win32,142.4704374
,,,,,,q,1.3675,0,112,112,112,1,112,images/flickr_cat_000691.jpg,images/pixabay_cat_000146.jpg,Eddy,001,2021-08-27_13h14.38.071,Cat face experiment_250-499,2021.1.4,Win32,142.4704374
,,,,,,q,1.1543,0,113,113,113,1,113,images/flickr_cat_000692.jpg,images/pixabay_cat_000148.jpg,Eddy,001,2021-08-27_13h14.38.071,Cat face experiment_250-499,2021.1.4,Win32,142.4704374
,,,,,,q,2.9561,0,114,114,114,1,114,images/flickr_cat_000693.jpg,images/pixabay_cat_000149.jpg,Eddy,001,2021-08-27_13h14.38.071,Cat face experiment_250-499,2021.1.4,Win32,142.4704374
,,,,,,q,0.9847,0,115,115,115,1,115,images/flickr_cat_000694.jpg,images/pixabay_cat_000150.jpg,Eddy,001,2021-08-27_13h14.38.071,Cat face experiment_250-499,2021.1.4,Win32,142.4704374
,,,,,,p,2.4227,0,116,116,116,1,116,images/flickr_cat_000695.jpg,images/pixabay_cat_000152.jpg,Eddy,001,2021-08-27_13h14.38.071,Cat face experiment_250-499,2021.1.4,Win32,142.4704374
,,,,,,p,1.8896,0,117,117,117,1,117,images/flickr_cat_000696.jpg,images/pixabay_cat_000153.jpg,Eddy,001,2021-08-27_13h14.38.071,Cat face experiment_250-499,2021.1.4,Win32,142.4704374
,,,,,,p,1.346,0,118,118,118,1,118,images/flickr_cat_000697.jpg,images/pixabay_cat_000154.jpg,Eddy,001,2021-08-27_13h14.38.071,Cat face experiment_250-499,2021.1.4,Win32,142.4704374
,,,,,,q,1.1461,0,119,119,119,1,119,images/flickr_cat_000698.jpg,images/pixabay_cat_000155.jpg,Eddy,001,2021-08-27_13h14.38.071,Cat face experiment_250-499,2021.1.4,Win32,142.4704374
,,,,,,p,1.0119,0,120,120,120,1,120,images/flickr_cat_000699.jpg,images/pixabay_cat_000156.jpg,Eddy,001,2021-08-27_13h14.38.071,Cat face experiment_250-499,2021.1.4,Win32,142.4704374
,,,,,,q,0.9293,0,121,121,121,1,121,images/flickr_cat_000700.jpg,images/pixabay_cat_000157.jpg,Eddy,001,2021-08-27_13h14.38.071,Cat face experiment_250-499,2021.1.4,Win32,142.4704374
,,,,,,q,1.2702,0,122,122,122,1,122,images/flickr_cat_000701.jpg,images/pixabay_cat_000158.jpg,Eddy,001,2021-08-27_13h14.38.071,Cat face experiment_250-499,2021.1.4,Win32,142.4704374
,,,,,,p,1.7077,0,123,123,123,1,123,images/flickr_cat_000702.jpg,images/pixabay_cat_000159.jpg,Eddy,001,2021-08-27_13h14.38.071,Cat face experiment_250-499,2021.1.4,Win32,142.4704374
,,,,,,q,2.3226,0,124,124,124,1,124,images/flickr_cat_000703.jpg,images/pixabay_cat_000160.jpg,Eddy,001,2021-08-27_13h14.38.071,Cat face experiment_250-499,2021.1.4,Win32,142.4704374
,,,,,,p,1.3947,0,125,125,125,1,125,images/flickr_cat_000704.jpg,images/pixabay_cat_000161.jpg,Eddy,001,2021-08-27_13h14.38.071,Cat face experiment_250-499,2021.1.4,Win32,142.4704374
,,,,,,q,1.034,0,126,126,126,1,126,images/flickr_cat_000705.jpg,images/pixabay_cat_000162.jpg,Eddy,001,2021-08-27_13h14.38.071,Cat face experiment_250-499,2021.1.4,Win32,142.4704374
,,,,,,p,2.7022,0,127,127,127,1,127,images/flickr_cat_000706.jpg,images/pixabay_cat_000163.jpg,Eddy,001,2021-08-27_13h14.38.071,Cat face experiment_250-499,2021.1.4,Win32,142.4704374
,,,,,,q,0.949,0,128,128,128,1,128,images/flickr_cat_000707.jpg,images/pixabay_cat_000164.jpg,Eddy,001,2021-08-27_13h14.38.071,Cat face experiment_250-499,2021.1.4,Win32,142.4704374
,,,,,,p,0.931,0,129,129,129,1,129,images/flickr_cat_000708.jpg,images/pixabay_cat_000166.jpg,Eddy,001,2021-08-27_13h14.38.071,Cat face experiment_250-499,2021.1.4,Win32,142.4704374
,,,,,,p,0.6541,0,130,130,130,1,130,images/flickr_cat_000710.jpg,images/pixabay_cat_000167.jpg,Eddy,001,2021-08-27_13h14.38.071,Cat face experiment_250-499,2021.1.4,Win32,142.4704374
,,,,,,p,0.9426,0,131,131,131,1,131,images/flickr_cat_000711.jpg,images/pixabay_cat_000168.jpg,Eddy,001,2021-08-27_13h14.38.071,Cat face experiment_250-499,2021.1.4,Win32,142.4704374
,,,,,,p,2.0952,0,132,132,132,1,132,images/flickr_cat_000712.jpg,images/pixabay_cat_000170.jpg,Eddy,001,2021-08-27_13h14.38.071,Cat face experiment_250-499,2021.1.4,Win32,142.4704374
,,,,,,p,1.1256,0,133,133,133,1,133,images/flickr_cat_000713.jpg,images/pixabay_cat_000171.jpg,Eddy,001,2021-08-27_13h14.38.071,Cat face experiment_250-499,2021.1.4,Win32,142.4704374
,,,,,,p,0.9383,0,134,134,134,1,134,images/flickr_cat_000715.jpg,images/pixabay_cat_000172.jpg,Eddy,001,2021-08-27_13h14.38.071,Cat face experiment_250-499,2021.1.4,Win32,142.4704374
,,,,,,p,1.047,0,135,135,135,1,135,images/flickr_cat_000716.jpg,images/pixabay_cat_000173.jpg,Eddy,001,2021-08-27_13h14.38.071,Cat face experiment_250-499,2021.1.4,Win32,142.4704374
,,,,,,q,1.6853,0,136,136,136,1,136,images/flickr_cat_000717.jpg,images/pixabay_cat_000174.jpg,Eddy,001,2021-08-27_13h14.38.071,Cat face experiment_250-499,2021.1.4,Win32,142.4704374
,,,,,,q,2.1194,0,137,137,137,1,137,images/flickr_cat_000718.jpg,images/pixabay_cat_000175.jpg,Eddy,001,2021-08-27_13h14.38.071,Cat face experiment_250-499,2021.1.4,Win32,142.4704374
,,,,,,q,1.972,0,138,138,138,1,138,images/flickr_cat_000719.jpg,images/pixabay_cat_000176.jpg,Eddy,001,2021-08-27_13h14.38.071,Cat face experiment_250-499,2021.1.4,Win32,142.4704374
,,,,,,q,1.3324,0,139,139,139,1,139,images/flickr_cat_000720.jpg,images/pixabay_cat_000177.jpg,Eddy,001,2021-08-27_13h14.38.071,Cat face experiment_250-499,2021.1.4,Win32,142.4704374
,,,,,,p,2.2214,0,140,140,140,1,140,images/flickr_cat_000721.jpg,images/pixabay_cat_000179.jpg,Eddy,001,2021-08-27_13h14.38.071,Cat face experiment_250-499,2021.1.4,Win32,142.4704374
,,,,,,p,0.8979,0,141,141,141,1,141,images/flickr_cat_000722.jpg,images/pixabay_cat_000180.jpg,Eddy,001,2021-08-27_13h14.38.071,Cat face experiment_250-499,2021.1.4,Win32,142.4704374
,,,,,,p,0.8937,0,142,142,142,1,142,images/flickr_cat_000723.jpg,images/pixabay_cat_000182.jpg,Eddy,001,2021-08-27_13h14.38.071,Cat face experiment_250-499,2021.1.4,Win32,142.4704374
,,,,,,p,0.7597,0,143,143,143,1,143,images/flickr_cat_000724.jpg,images/pixabay_cat_000183.jpg,Eddy,001,2021-08-27_13h14.38.071,Cat face experiment_250-499,2021.1.4,Win32,142.4704374
,,,,,,p,0.8368,0,144,144,144,1,144,images/flickr_cat_000725.jpg,images/pixabay_cat_000184.jpg,Eddy,001,2021-08-27_13h14.38.071,Cat face experiment_250-499,2021.1.4,Win32,142.4704374
,,,,,,p,2.0846,0,145,145,145,1,145,images/flickr_cat_000726.jpg,images/pixabay_cat_000185.jpg,Eddy,001,2021-08-27_13h14.38.071,Cat face experiment_250-499,2021.1.4,Win32,142.4704374
,,,,,,q,2.0112,0,146,146,146,1,146,images/flickr_cat_000727.jpg,images/pixabay_cat_000186.jpg,Eddy,001,2021-08-27_13h14.38.071,Cat face experiment_250-499,2021.1.4,Win32,142.4704374
,,,,,,p,0.9035,0,147,147,147,1,147,images/flickr_cat_000728.jpg,images/pixabay_cat_000187.jpg,Eddy,001,2021-08-27_13h14.38.071,Cat face experiment_250-499,2021.1.4,Win32,142.4704374
,,,,,,p,1.9943,0,148,148,148,1,148,images/flickr_cat_000729.jpg,images/pixabay_cat_000188.jpg,Eddy,001,2021-08-27_13h14.38.071,Cat face experiment_250-499,2021.1.4,Win32,142.4704374
,,,,,,q,0.8734,0,149,149,149,1,149,images/flickr_cat_000730.jpg,images/pixabay_cat_000189.jpg,Eddy,001,2021-08-27_13h14.38.071,Cat face experiment_250-499,2021.1.4,Win32,142.4704374
,,,,,,p,0.9251,0,150,150,150,1,150,images/flickr_cat_000731.jpg,images/pixabay_cat_000191.jpg,Eddy,001,2021-08-27_13h14.38.071,Cat face experiment_250-499,2021.1.4,Win32,142.4704374
,,,,,,p,2.2499,0,151,151,151,1,151,images/flickr_cat_000732.jpg,images/pixabay_cat_000192.jpg,Eddy,001,2021-08-27_13h14.38.071,Cat face experiment_250-499,2021.1.4,Win32,142.4704374
,,,,,,q,0.882,0,152,152,152,1,152,images/flickr_cat_000733.jpg,images/pixabay_cat_000193.jpg,Eddy,001,2021-08-27_13h14.38.071,Cat face experiment_250-499,2021.1.4,Win32,142.4704374
,,,,,,p,0.874,0,153,153,153,1,153,images/flickr_cat_000734.jpg,images/pixabay_cat_000194.jpg,Eddy,001,2021-08-27_13h14.38.071,Cat face experiment_250-499,2021.1.4,Win32,142.4704374
,,,,,,p,1.577,0,154,154,154,1,154,images/flickr_cat_000735.jpg,images/pixabay_cat_000195.jpg,Eddy,001,2021-08-27_13h14.38.071,Cat face experiment_250-499,2021.1.4,Win32,142.4704374
,,,,,,q,0.9099,0,155,155,155,1,155,images/flickr_cat_000736.jpg,images/pixabay_cat_000196.jpg,Eddy,001,2021-08-27_13h14.38.071,Cat face experiment_250-499,2021.1.4,Win32,142.4704374
,,,,,,p,0.6655,0,156,156,156,1,156,images/flickr_cat_000737.jpg,images/pixabay_cat_000197.jpg,Eddy,001,2021-08-27_13h14.38.071,Cat face experiment_250-499,2021.1.4,Win32,142.4704374
,,,,,,q,0.7274,0,157,157,157,1,157,images/flickr_cat_000738.jpg,images/pixabay_cat_000198.jpg,Eddy,001,2021-08-27_13h14.38.071,Cat face experiment_250-499,2021.1.4,Win32,142.4704374
,,,,,,q,1.1516,0,158,158,158,1,158,images/flickr_cat_000739.jpg,images/pixabay_cat_000199.jpg,Eddy,001,2021-08-27_13h14.38.071,Cat face experiment_250-499,2021.1.4,Win32,142.4704374
,,,,,,p,0.9711,0,159,159,159,1,159,images/flickr_cat_000740.jpg,images/pixabay_cat_000200.jpg,Eddy,001,2021-08-27_13h14.38.071,Cat face experiment_250-499,2021.1.4,Win32,142.4704374
,,,,,,q,0.7911,0,160,160,160,1,160,images/flickr_cat_000741.jpg,images/pixabay_cat_000201.jpg,Eddy,001,2021-08-27_13h14.38.071,Cat face experiment_250-499,2021.1.4,Win32,142.4704374
,,,,,,q,1.4802,0,161,161,161,1,161,images/flickr_cat_000742.jpg,images/pixabay_cat_000203.jpg,Eddy,001,2021-08-27_13h14.38.071,Cat face experiment_250-499,2021.1.4,Win32,142.4704374
,,,,,,p,2.8938,0,162,162,162,1,162,images/flickr_cat_000743.jpg,images/pixabay_cat_000204.jpg,Eddy,001,2021-08-27_13h14.38.071,Cat face experiment_250-499,2021.1.4,Win32,142.4704374
,,,,,,q,1.2761,0,163,163,163,1,163,images/flickr_cat_000744.jpg,images/pixabay_cat_000205.jpg,Eddy,001,2021-08-27_13h14.38.071,Cat face experiment_250-499,2021.1.4,Win32,142.4704374
,,,,,,p,2.4418,0,164,164,164,1,164,images/flickr_cat_000745.jpg,images/pixabay_cat_000206.jpg,Eddy,001,2021-08-27_13h14.38.071,Cat face experiment_250-499,2021.1.4,Win32,142.4704374
,,,,,,p,1.3606,0,165,165,165,1,165,images/flickr_cat_000748.jpg,images/pixabay_cat_000207.jpg,Eddy,001,2021-08-27_13h14.38.071,Cat face experiment_250-499,2021.1.4,Win32,142.4704374
,,,,,,q,0.8244,0,166,166,166,1,166,images/flickr_cat_000749.jpg,images/pixabay_cat_000208.jpg,Eddy,001,2021-08-27_13h14.38.071,Cat face experiment_250-499,2021.1.4,Win32,142.4704374
,,,,,,p,0.7847,0,167,167,167,1,167,images/flickr_cat_000750.jpg,images/pixabay_cat_000209.jpg,Eddy,001,2021-08-27_13h14.38.071,Cat face experiment_250-499,2021.1.4,Win32,142.4704374
,,,,,,q,1.1931,0,168,168,168,1,168,images/flickr_cat_000752.jpg,images/pixabay_cat_000210.jpg,Eddy,001,2021-08-27_13h14.38.071,Cat face experiment_250-499,2021.1.4,Win32,142.4704374
,,,,,,p,2.9774,0,169,169,169,1,169,images/flickr_cat_000753.jpg,images/pixabay_cat_000211.jpg,Eddy,001,2021-08-27_13h14.38.071,Cat face experiment_250-499,2021.1.4,Win32,142.4704374
,,,,,,p,1.9666,0,170,170,170,1,170,images/flickr_cat_000754.jpg,images/pixabay_cat_000212.jpg,Eddy,001,2021-08-27_13h14.38.071,Cat face experiment_250-499,2021.1.4,Win32,142.4704374
,,,,,,p,1.5242,0,171,171,171,1,171,images/flickr_cat_000755.jpg,images/pixabay_cat_000213.jpg,Eddy,001,2021-08-27_13h14.38.071,Cat face experiment_250-499,2021.1.4,Win32,142.4704374
,,,,,,p,2.0787,0,172,172,172,1,172,images/flickr_cat_000756.jpg,images/pixabay_cat_000214.jpg,Eddy,001,2021-08-27_13h14.38.071,Cat face experiment_250-499,2021.1.4,Win32,142.4704374
,,,,,,q,1.1073,0,173,173,173,1,173,images/flickr_cat_000757.jpg,images/pixabay_cat_000215.jpg,Eddy,001,2021-08-27_13h14.38.071,Cat face experiment_250-499,2021.1.4,Win32,142.4704374
,,,,,,q,5.1828,0,174,174,174,1,174,images/flickr_cat_000758.jpg,images/pixabay_cat_000216.jpg,Eddy,001,2021-08-27_13h14.38.071,Cat face experiment_250-499,2021.1.4,Win32,142.4704374
,,,,,,p,0.9015,0,175,175,175,1,175,images/flickr_cat_000760.jpg,images/pixabay_cat_000217.jpg,Eddy,001,2021-08-27_13h14.38.071,Cat face experiment_250-499,2021.1.4,Win32,142.4704374
,,,,,,p,0.7424,0,176,176,176,1,176,images/flickr_cat_000762.jpg,images/pixabay_cat_000218.jpg,Eddy,001,2021-08-27_13h14.38.071,Cat face experiment_250-499,2021.1.4,Win32,142.4704374
,,,,,,p,3.1573,0,177,177,177,1,177,images/flickr_cat_000763.jpg,images/pixabay_cat_000219.jpg,Eddy,001,2021-08-27_13h14.38.071,Cat face experiment_250-499,2021.1.4,Win32,142.4704374
,,,,,,q,2.8698,0,178,178,178,1,178,images/flickr_cat_000764.jpg,images/pixabay_cat_000220.jpg,Eddy,001,2021-08-27_13h14.38.071,Cat face experiment_250-499,2021.1.4,Win32,142.4704374
,,,,,,q,1.1435,0,179,179,179,1,179,images/flickr_cat_000765.jpg,images/pixabay_cat_000221.jpg,Eddy,001,2021-08-27_13h14.38.071,Cat face experiment_250-499,2021.1.4,Win32,142.4704374
,,,,,,q,1.0141,0,180,180,180,1,180,images/flickr_cat_000767.jpg,images/pixabay_cat_000222.jpg,Eddy,001,2021-08-27_13h14.38.071,Cat face experiment_250-499,2021.1.4,Win32,142.4704374
,,,,,,p,1.0102,0,181,181,181,1,181,images/flickr_cat_000768.jpg,images/pixabay_cat_000223.jpg,Eddy,001,2021-08-27_13h14.38.071,Cat face experiment_250-499,2021.1.4,Win32,142.4704374
,,,,,,p,2.3432,0,182,182,182,1,182,images/flickr_cat_000770.jpg,images/pixabay_cat_000224.jpg,Eddy,001,2021-08-27_13h14.38.071,Cat face experiment_250-499,2021.1.4,Win32,142.4704374
,,,,,,q,1.3779,0,183,183,183,1,183,images/flickr_cat_000771.jpg,images/pixabay_cat_000225.jpg,Eddy,001,2021-08-27_13h14.38.071,Cat face experiment_250-499,2021.1.4,Win32,142.4704374
,,,,,,q,1.8774,0,184,184,184,1,184,images/flickr_cat_000772.jpg,images/pixabay_cat_000226.jpg,Eddy,001,2021-08-27_13h14.38.071,Cat face experiment_250-499,2021.1.4,Win32,142.4704374
,,,,,,p,0.9156,0,185,185,185,1,185,images/flickr_cat_000773.jpg,images/pixabay_cat_000227.jpg,Eddy,001,2021-08-27_13h14.38.071,Cat face experiment_250-499,2021.1.4,Win32,142.4704374
,,,,,,p,1.2823,0,186,186,186,1,186,images/flickr_cat_000774.jpg,images/pixabay_cat_000228.jpg,Eddy,001,2021-08-27_13h14.38.071,Cat face experiment_250-499,2021.1.4,Win32,142.4704374
,,,,,,q,1.034,0,187,187,187,1,187,images/flickr_cat_000775.jpg,images/pixabay_cat_000229.jpg,Eddy,001,2021-08-27_13h14.38.071,Cat face experiment_250-499,2021.1.4,Win32,142.4704374
,,,,,,q,1.9357,0,188,188,188,1,188,images/flickr_cat_000776.jpg,images/pixabay_cat_000230.jpg,Eddy,001,2021-08-27_13h14.38.071,Cat face experiment_250-499,2021.1.4,Win32,142.4704374
,,,,,,q,1.016,0,189,189,189,1,189,images/flickr_cat_000777.jpg,images/pixabay_cat_000232.jpg,Eddy,001,2021-08-27_13h14.38.071,Cat face experiment_250-499,2021.1.4,Win32,142.4704374
,,,,,,q,0.7968,0,190,190,190,1,190,images/flickr_cat_000778.jpg,images/pixabay_cat_000233.jpg,Eddy,001,2021-08-27_13h14.38.071,Cat face experiment_250-499,2021.1.4,Win32,142.4704374
,,,,,,q,2.0325,0,191,191,191,1,191,images/flickr_cat_000779.jpg,images/pixabay_cat_000234.jpg,Eddy,001,2021-08-27_13h14.38.071,Cat face experiment_250-499,2021.1.4,Win32,142.4704374
,,,,,,p,0.8799,0,192,192,192,1,192,images/flickr_cat_000780.jpg,images/pixabay_cat_000235.jpg,Eddy,001,2021-08-27_13h14.38.071,Cat face experiment_250-499,2021.1.4,Win32,142.4704374
,,,,,,p,1.5621,0,193,193,193,1,193,images/flickr_cat_000781.jpg,images/pixabay_cat_000236.jpg,Eddy,001,2021-08-27_13h14.38.071,Cat face experiment_250-499,2021.1.4,Win32,142.4704374
,,,,,,q,2.0878,0,194,194,194,1,194,images/flickr_cat_000782.jpg,images/pixabay_cat_000237.jpg,Eddy,001,2021-08-27_13h14.38.071,Cat face experiment_250-499,2021.1.4,Win32,142.4704374
,,,,,,q,1.8101,0,195,195,195,1,195,images/flickr_cat_000783.jpg,images/pixabay_cat_000238.jpg,Eddy,001,2021-08-27_13h14.38.071,Cat face experiment_250-499,2021.1.4,Win32,142.4704374
,,,,,,q,2.3898,0,196,196,196,1,196,images/flickr_cat_000784.jpg,images/pixabay_cat_000239.jpg,Eddy,001,2021-08-27_13h14.38.071,Cat face experiment_250-499,2021.1.4,Win32,142.4704374
,,,,,,p,1.3765,0,197,197,197,1,197,images/flickr_cat_000785.jpg,images/pixabay_cat_000240.jpg,Eddy,001,2021-08-27_13h14.38.071,Cat face experiment_250-499,2021.1.4,Win32,142.4704374
,,,,,,q,1.5812,0,198,198,198,1,198,images/flickr_cat_000786.jpg,images/pixabay_cat_000242.jpg,Eddy,001,2021-08-27_13h14.38.071,Cat face experiment_250-499,2021.1.4,Win32,142.4704374
,,,,,,p,0.9862,0,199,199,199,1,199,images/flickr_cat_000787.jpg,images/pixabay_cat_000243.jpg,Eddy,001,2021-08-27_13h14.38.071,Cat face experiment_250-499,2021.1.4,Win32,142.4704374
,,,,,,p,1.5259,0,200,200,200,1,200,images/flickr_cat_000788.jpg,images/pixabay_cat_000244.jpg,Eddy,001,2021-08-27_13h14.38.071,Cat face experiment_250-499,2021.1.4,Win32,142.4704374
,,,,,,p,0.7933,0,201,201,201,1,201,images/flickr_cat_000789.jpg,images/pixabay_cat_000245.jpg,Eddy,001,2021-08-27_13h14.38.071,Cat face experiment_250-499,2021.1.4,Win32,142.4704374
,,,,,,q,1.283,0,202,202,202,1,202,images/flickr_cat_000790.jpg,images/pixabay_cat_000246.jpg,Eddy,001,2021-08-27_13h14.38.071,Cat face experiment_250-499,2021.1.4,Win32,142.4704374
,,,,,,q,1.8263,0,203,203,203,1,203,images/flickr_cat_000791.jpg,images/pixabay_cat_000247.jpg,Eddy,001,2021-08-27_13h14.38.071,Cat face experiment_250-499,2021.1.4,Win32,142.4704374
,,,,,,q,1.0956,0,204,204,204,1,204,images/flickr_cat_000792.jpg,images/pixabay_cat_000249.jpg,Eddy,001,2021-08-27_13h14.38.071,Cat face experiment_250-499,2021.1.4,Win32,142.4704374
,,,,,,q,1.9548,0,205,205,205,1,205,images/flickr_cat_000793.jpg,images/pixabay_cat_000250.jpg,Eddy,001,2021-08-27_13h14.38.071,Cat face experiment_250-499,2021.1.4,Win32,142.4704374
,,,,,,q,1.0613,0,206,206,206,1,206,images/flickr_cat_000794.jpg,images/pixabay_cat_000251.jpg,Eddy,001,2021-08-27_13h14.38.071,Cat face experiment_250-499,2021.1.4,Win32,142.4704374
,,,,,,p,1.039,0,207,207,207,1,207,images/flickr_cat_000795.jpg,images/pixabay_cat_000252.jpg,Eddy,001,2021-08-27_13h14.38.071,Cat face experiment_250-499,2021.1.4,Win32,142.4704374
,,,,,,p,0.9113,0,208,208,208,1,208,images/flickr_cat_000796.jpg,images/pixabay_cat_000253.jpg,Eddy,001,2021-08-27_13h14.38.071,Cat face experiment_250-499,2021.1.4,Win32,142.4704374
,,,,,,q,0.868,0,209,209,209,1,209,images/flickr_cat_000797.jpg,images/pixabay_cat_000254.jpg,Eddy,001,2021-08-27_13h14.38.071,Cat face experiment_250-499,2021.1.4,Win32,142.4704374
,,,,,,p,0.8525,0,210,210,210,1,210,images/flickr_cat_000798.jpg,images/pixabay_cat_000255.jpg,Eddy,001,2021-08-27_13h14.38.071,Cat face experiment_250-499,2021.1.4,Win32,142.4704374
,,,,,,q,1.3596,0,211,211,211,1,211,images/flickr_cat_000799.jpg,images/pixabay_cat_000256.jpg,Eddy,001,2021-08-27_13h14.38.071,Cat face experiment_250-499,2021.1.4,Win32,142.4704374
,,,,,,q,1.8384,0,212,212,212,1,212,images/flickr_cat_000800.jpg,images/pixabay_cat_000257.jpg,Eddy,001,2021-08-27_13h14.38.071,Cat face experiment_250-499,2021.1.4,Win32,142.4704374
,,,,,,p,1.1723,0,213,213,213,1,213,images/flickr_cat_000801.jpg,images/pixabay_cat_000258.jpg,Eddy,001,2021-08-27_13h14.38.071,Cat face experiment_250-499,2021.1.4,Win32,142.4704374
,,,,,,q,1.2693,0,214,214,214,1,214,images/flickr_cat_000803.jpg,images/pixabay_cat_000259.jpg,Eddy,001,2021-08-27_13h14.38.071,Cat face experiment_250-499,2021.1.4,Win32,142.4704374
,,,,,,q,1.272,0,215,215,215,1,215,images/flickr_cat_000804.jpg,images/pixabay_cat_000260.jpg,Eddy,001,2021-08-27_13h14.38.071,Cat face experiment_250-499,2021.1.4,Win32,142.4704374
,,,,,,q,1.0755,0,216,216,216,1,216,images/flickr_cat_000805.jpg,images/pixabay_cat_000261.jpg,Eddy,001,2021-08-27_13h14.38.071,Cat face experiment_250-499,2021.1.4,Win32,142.4704374
,,,,,,p,0.908,0,217,217,217,1,217,images/flickr_cat_000806.jpg,images/pixabay_cat_000262.jpg,Eddy,001,2021-08-27_13h14.38.071,Cat face experiment_250-499,2021.1.4,Win32,142.4704374
,,,,,,q,0.9428,0,218,218,218,1,218,images/flickr_cat_000807.jpg,images/pixabay_cat_000263.jpg,Eddy,001,2021-08-27_13h14.38.071,Cat face experiment_250-499,2021.1.4,Win32,142.4704374
,,,,,,p,1.8036,0,219,219,219,1,219,images/flickr_cat_000808.jpg,images/pixabay_cat_000264.jpg,Eddy,001,2021-08-27_13h14.38.071,Cat face experiment_250-499,2021.1.4,Win32,142.4704374
,,,,,,p,1.8426,0,220,220,220,1,220,images/flickr_cat_000809.jpg,images/pixabay_cat_000265.jpg,Eddy,001,2021-08-27_13h14.38.071,Cat face experiment_250-499,2021.1.4,Win32,142.4704374
,,,,,,q,2.6045,0,221,221,221,1,221,images/flickr_cat_000810.jpg,images/pixabay_cat_000266.jpg,Eddy,001,2021-08-27_13h14.38.071,Cat face experiment_250-499,2021.1.4,Win32,142.4704374
,,,,,,q,0.9389,0,222,222,222,1,222,images/flickr_cat_000811.jpg,images/pixabay_cat_000267.jpg,Eddy,001,2021-08-27_13h14.38.071,Cat face experiment_250-499,2021.1.4,Win32,142.4704374
,,,,,,q,1.1229,0,223,223,223,1,223,images/flickr_cat_000812.jpg,images/pixabay_cat_000268.jpg,Eddy,001,2021-08-27_13h14.38.071,Cat face experiment_250-499,2021.1.4,Win32,142.4704374
,,,,,,q,1.3797,0,224,224,224,1,224,images/flickr_cat_000813.jpg,images/pixabay_cat_000269.jpg,Eddy,001,2021-08-27_13h14.38.071,Cat face experiment_250-499,2021.1.4,Win32,142.4704374
,,,,,,p,0.9016,0,225,225,225,1,225,images/flickr_cat_000815.jpg,images/pixabay_cat_000270.jpg,Eddy,001,2021-08-27_13h14.38.071,Cat face experiment_250-499,2021.1.4,Win32,142.4704374
,,,,,,q,1.1361,0,226,226,226,1,226,images/flickr_cat_000817.jpg,images/pixabay_cat_000271.jpg,Eddy,001,2021-08-27_13h14.38.071,Cat face experiment_250-499,2021.1.4,Win32,142.4704374
,,,,,,p,1.3143,0,227,227,227,1,227,images/flickr_cat_000818.jpg,images/pixabay_cat_000272.jpg,Eddy,001,2021-08-27_13h14.38.071,Cat face experiment_250-499,2021.1.4,Win32,142.4704374
,,,,,,p,0.7971,0,228,228,228,1,228,images/flickr_cat_000819.jpg,images/pixabay_cat_000273.jpg,Eddy,001,2021-08-27_13h14.38.071,Cat face experiment_250-499,2021.1.4,Win32,142.4704374
,,,,,,p,1.3438,0,229,229,229,1,229,images/flickr_cat_000820.jpg,images/pixabay_cat_000274.jpg,Eddy,001,2021-08-27_13h14.38.071,Cat face experiment_250-499,2021.1.4,Win32,142.4704374
,,,,,,p,1.0049,0,230,230,230,1,230,images/flickr_cat_000821.jpg,images/pixabay_cat_000275.jpg,Eddy,001,2021-08-27_13h14.38.071,Cat face experiment_250-499,2021.1.4,Win32,142.4704374
,,,,,,p,2.2364,0,231,231,231,1,231,images/pixabay_cat_000002.jpg,images/pixabay_cat_000277.jpg,Eddy,001,2021-08-27_13h14.38.071,Cat face experiment_250-499,2021.1.4,Win32,142.4704374
,,,,,,q,1.8528,0,232,232,232,1,232,images/pixabay_cat_000003.jpg,images/pixabay_cat_000278.jpg,Eddy,001,2021-08-27_13h14.38.071,Cat face experiment_250-499,2021.1.4,Win32,142.4704374
,,,,,,q,0.8243,0,233,233,233,1,233,images/pixabay_cat_000004.jpg,images/pixabay_cat_000279.jpg,Eddy,001,2021-08-27_13h14.38.071,Cat face experiment_250-499,2021.1.4,Win32,142.4704374
,,,,,,q,1.7519,0,234,234,234,1,234,images/pixabay_cat_000005.jpg,images/pixabay_cat_000280.jpg,Eddy,001,2021-08-27_13h14.38.071,Cat face experiment_250-499,2021.1.4,Win32,142.4704374
,,,,,,q,0.9881,0,235,235,235,1,235,images/pixabay_cat_000006.jpg,images/pixabay_cat_000281.jpg,Eddy,001,2021-08-27_13h14.38.071,Cat face experiment_250-499,2021.1.4,Win32,142.4704374
,,,,,,q,0.8116,0,236,236,236,1,236,images/pixabay_cat_000008.jpg,images/pixabay_cat_000282.jpg,Eddy,001,2021-08-27_13h14.38.071,Cat face experiment_250-499,2021.1.4,Win32,142.4704374
,,,,,,p,1.1381,0,237,237,237,1,237,images/pixabay_cat_000009.jpg,images/pixabay_cat_000283.jpg,Eddy,001,2021-08-27_13h14.38.071,Cat face experiment_250-499,2021.1.4,Win32,142.4704374
,,,,,,q,0.904,0,238,238,238,1,238,images/pixabay_cat_000011.jpg,images/pixabay_cat_000284.jpg,Eddy,001,2021-08-27_13h14.38.071,Cat face experiment_250-499,2021.1.4,Win32,142.4704374
,,,,,,q,0.95,0,239,239,239,1,239,images/pixabay_cat_000012.jpg,images/pixabay_cat_000285.jpg,Eddy,001,2021-08-27_13h14.38.071,Cat face experiment_250-499,2021.1.4,Win32,142.4704374
,,,,,,p,0.7916,0,240,240,240,1,240,images/pixabay_cat_000013.jpg,images/pixabay_cat_000286.jpg,Eddy,001,2021-08-27_13h14.38.071,Cat face experiment_250-499,2021.1.4,Win32,142.4704374
,,,,,,q,2.0258,0,241,241,241,1,241,images/pixabay_cat_000014.jpg,images/pixabay_cat_000287.jpg,Eddy,001,2021-08-27_13h14.38.071,Cat face experiment_250-499,2021.1.4,Win32,142.4704374
,,,,,,q,1.2229,0,242,242,242,1,242,images/pixabay_cat_000015.jpg,images/pixabay_cat_000288.jpg,Eddy,001,2021-08-27_13h14.38.071,Cat face experiment_250-499,2021.1.4,Win32,142.4704374
,,,,,,p,0.6931,0,243,243,243,1,243,images/pixabay_cat_000016.jpg,images/pixabay_cat_000289.jpg,Eddy,001,2021-08-27_13h14.38.071,Cat face experiment_250-499,2021.1.4,Win32,142.4704374
,,,,,,p,0.9505,0,244,244,244,1,244,images/pixabay_cat_000017.jpg,images/pixabay_cat_000290.jpg,Eddy,001,2021-08-27_13h14.38.071,Cat face experiment_250-499,2021.1.4,Win32,142.4704374
,,,,,,q,1.5473,0,245,245,245,1,245,images/pixabay_cat_000018.jpg,images/pixabay_cat_000292.jpg,Eddy,001,2021-08-27_13h14.38.071,Cat face experiment_250-499,2021.1.4,Win32,142.4704374
,,,,,,p,0.7505,0,246,246,246,1,246,images/pixabay_cat_000019.jpg,images/pixabay_cat_000293.jpg,Eddy,001,2021-08-27_13h14.38.071,Cat face experiment_250-499,2021.1.4,Win32,142.4704374
,,,,,,p,1.2588,0,247,247,247,1,247,images/pixabay_cat_000020.jpg,images/pixabay_cat_000294.jpg,Eddy,001,2021-08-27_13h14.38.071,Cat face experiment_250-499,2021.1.4,Win32,142.4704374
,,,,,,p,0.7471,0,248,248,248,1,248,images/pixabay_cat_000021.jpg,images/pixabay_cat_000295.jpg,Eddy,001,2021-08-27_13h14.38.071,Cat face experiment_250-499,2021.1.4,Win32,142.4704374
,,,,,,q,2.3686,0,249,249,249,1,249,images/pixabay_cat_000022.jpg,images/pixabay_cat_000297.jpg,Eddy,001,2021-08-27_13h14.38.071,Cat face experiment_250-499,2021.1.4,Win32,142.4704374
