key_resp.keys,key_resp.rt,key_resp_2.keys,key_resp_2.rt,key_resp_3.keys,key_resp_3.rt,key_resp_4.keys,key_resp_4.rt,trials.thisRepN,trials.thisTrialN,trials.thisN,trials.thisIndex,trials.ran,trail_nums,img1,img2,participant,session,date,expName,psychopyVersion,OS,frameRate
space,1.4398,space,0.8334,space,1.1386,p,3.3322,0,0,0,0,1,0,images/flickr_cat_000002.jpg,images/flickr_cat_000285.jpg,Eddy2,001,2021-08-23_11h38.16.131,Cat face experiment_0-249,2021.1.4,Win32,144.0092166
,,,,,,p,1.3692,0,1,1,1,1,1,images/flickr_cat_000003.jpg,images/flickr_cat_000286.jpg,Eddy2,001,2021-08-23_11h38.16.131,Cat face experiment_0-249,2021.1.4,Win32,144.0092166
,,,,,,q,4.6791,0,2,2,2,1,2,images/flickr_cat_000004.jpg,images/flickr_cat_000288.jpg,Eddy2,001,2021-08-23_11h38.16.131,Cat face experiment_0-249,2021.1.4,Win32,144.0092166
,,,,,,q,3.3586,0,3,3,3,1,3,images/flickr_cat_000005.jpg,images/flickr_cat_000289.jpg,Eddy2,001,2021-08-23_11h38.16.131,Cat face experiment_0-249,2021.1.4,Win32,144.0092166
,,,,,,q,2.8997,0,4,4,4,1,4,images/flickr_cat_000006.jpg,images/flickr_cat_000290.jpg,Eddy2,001,2021-08-23_11h38.16.131,Cat face experiment_0-249,2021.1.4,Win32,144.0092166
,,,,,,q,5.8203,0,5,5,5,1,5,images/flickr_cat_000007.jpg,images/flickr_cat_000291.jpg,Eddy2,001,2021-08-23_11h38.16.131,Cat face experiment_0-249,2021.1.4,Win32,144.0092166
,,,,,,p,2.4971,0,6,6,6,1,6,images/flickr_cat_000009.jpg,images/flickr_cat_000293.jpg,Eddy2,001,2021-08-23_11h38.16.131,Cat face experiment_0-249,2021.1.4,Win32,144.0092166
,,,,,,q,1.1856,0,7,7,7,1,7,images/flickr_cat_000010.jpg,images/flickr_cat_000294.jpg,Eddy2,001,2021-08-23_11h38.16.131,Cat face experiment_0-249,2021.1.4,Win32,144.0092166
,,,,,,p,1.6789,0,8,8,8,1,8,images/flickr_cat_000012.jpg,images/flickr_cat_000295.jpg,Eddy2,001,2021-08-23_11h38.16.131,Cat face experiment_0-249,2021.1.4,Win32,144.0092166
,,,,,,q,0.8877,0,9,9,9,1,9,images/flickr_cat_000013.jpg,images/flickr_cat_000296.jpg,Eddy2,001,2021-08-23_11h38.16.131,Cat face experiment_0-249,2021.1.4,Win32,144.0092166
,,,,,,q,1.5478,0,10,10,10,1,10,images/flickr_cat_000014.jpg,images/flickr_cat_000297.jpg,Eddy2,001,2021-08-23_11h38.16.131,Cat face experiment_0-249,2021.1.4,Win32,144.0092166
,,,,,,p,2.3326,0,11,11,11,1,11,images/flickr_cat_000015.jpg,images/flickr_cat_000298.jpg,Eddy2,001,2021-08-23_11h38.16.131,Cat face experiment_0-249,2021.1.4,Win32,144.0092166
,,,,,,p,0.9571,0,12,12,12,1,12,images/flickr_cat_000017.jpg,images/flickr_cat_000299.jpg,Eddy2,001,2021-08-23_11h38.16.131,Cat face experiment_0-249,2021.1.4,Win32,144.0092166
,,,,,,q,1.2149,0,13,13,13,1,13,images/flickr_cat_000018.jpg,images/flickr_cat_000300.jpg,Eddy2,001,2021-08-23_11h38.16.131,Cat face experiment_0-249,2021.1.4,Win32,144.0092166
,,,,,,p,0.9881,0,14,14,14,1,14,images/flickr_cat_000019.jpg,images/flickr_cat_000301.jpg,Eddy2,001,2021-08-23_11h38.16.131,Cat face experiment_0-249,2021.1.4,Win32,144.0092166
,,,,,,p,1.1785,0,15,15,15,1,15,images/flickr_cat_000020.jpg,images/flickr_cat_000302.jpg,Eddy2,001,2021-08-23_11h38.16.131,Cat face experiment_0-249,2021.1.4,Win32,144.0092166
,,,,,,q,1.002,0,16,16,16,1,16,images/flickr_cat_000021.jpg,images/flickr_cat_000303.jpg,Eddy2,001,2021-08-23_11h38.16.131,Cat face experiment_0-249,2021.1.4,Win32,144.0092166
,,,,,,q,0.9384,0,17,17,17,1,17,images/flickr_cat_000022.jpg,images/flickr_cat_000304.jpg,Eddy2,001,2021-08-23_11h38.16.131,Cat face experiment_0-249,2021.1.4,Win32,144.0092166
,,,,,,p,1.6264,0,18,18,18,1,18,images/flickr_cat_000023.jpg,images/flickr_cat_000305.jpg,Eddy2,001,2021-08-23_11h38.16.131,Cat face experiment_0-249,2021.1.4,Win32,144.0092166
,,,,,,p,1.3879,0,19,19,19,1,19,images/flickr_cat_000024.jpg,images/flickr_cat_000306.jpg,Eddy2,001,2021-08-23_11h38.16.131,Cat face experiment_0-249,2021.1.4,Win32,144.0092166
,,,,,,p,1.7001,0,20,20,20,1,20,images/flickr_cat_000025.jpg,images/flickr_cat_000307.jpg,Eddy2,001,2021-08-23_11h38.16.131,Cat face experiment_0-249,2021.1.4,Win32,144.0092166
,,,,,,p,1.2738,0,21,21,21,1,21,images/flickr_cat_000026.jpg,images/flickr_cat_000308.jpg,Eddy2,001,2021-08-23_11h38.16.131,Cat face experiment_0-249,2021.1.4,Win32,144.0092166
,,,,,,q,2.7286,0,22,22,22,1,22,images/flickr_cat_000027.jpg,images/flickr_cat_000309.jpg,Eddy2,001,2021-08-23_11h38.16.131,Cat face experiment_0-249,2021.1.4,Win32,144.0092166
,,,,,,p,0.8733,0,23,23,23,1,23,images/flickr_cat_000028.jpg,images/flickr_cat_000310.jpg,Eddy2,001,2021-08-23_11h38.16.131,Cat face experiment_0-249,2021.1.4,Win32,144.0092166
,,,,,,p,2.1697,0,24,24,24,1,24,images/flickr_cat_000029.jpg,images/flickr_cat_000312.jpg,Eddy2,001,2021-08-23_11h38.16.131,Cat face experiment_0-249,2021.1.4,Win32,144.0092166
,,,,,,p,0.8051,0,25,25,25,1,25,images/flickr_cat_000030.jpg,images/flickr_cat_000313.jpg,Eddy2,001,2021-08-23_11h38.16.131,Cat face experiment_0-249,2021.1.4,Win32,144.0092166
,,,,,,p,1.753,0,26,26,26,1,26,images/flickr_cat_000031.jpg,images/flickr_cat_000315.jpg,Eddy2,001,2021-08-23_11h38.16.131,Cat face experiment_0-249,2021.1.4,Win32,144.0092166
,,,,,,p,0.9674,0,27,27,27,1,27,images/flickr_cat_000032.jpg,images/flickr_cat_000316.jpg,Eddy2,001,2021-08-23_11h38.16.131,Cat face experiment_0-249,2021.1.4,Win32,144.0092166
,,,,,,p,2.3244,0,28,28,28,1,28,images/flickr_cat_000033.jpg,images/flickr_cat_000317.jpg,Eddy2,001,2021-08-23_11h38.16.131,Cat face experiment_0-249,2021.1.4,Win32,144.0092166
,,,,,,p,1.0205,0,29,29,29,1,29,images/flickr_cat_000034.jpg,images/flickr_cat_000318.jpg,Eddy2,001,2021-08-23_11h38.16.131,Cat face experiment_0-249,2021.1.4,Win32,144.0092166
,,,,,,q,2.9768,0,30,30,30,1,30,images/flickr_cat_000035.jpg,images/flickr_cat_000319.jpg,Eddy2,001,2021-08-23_11h38.16.131,Cat face experiment_0-249,2021.1.4,Win32,144.0092166
,,,,,,p,0.964,0,31,31,31,1,31,images/flickr_cat_000036.jpg,images/flickr_cat_000321.jpg,Eddy2,001,2021-08-23_11h38.16.131,Cat face experiment_0-249,2021.1.4,Win32,144.0092166
,,,,,,q,1.2553,0,32,32,32,1,32,images/flickr_cat_000037.jpg,images/flickr_cat_000322.jpg,Eddy2,001,2021-08-23_11h38.16.131,Cat face experiment_0-249,2021.1.4,Win32,144.0092166
,,,,,,p,1.4791,0,33,33,33,1,33,images/flickr_cat_000038.jpg,images/flickr_cat_000323.jpg,Eddy2,001,2021-08-23_11h38.16.131,Cat face experiment_0-249,2021.1.4,Win32,144.0092166
,,,,,,p,0.9075,0,34,34,34,1,34,images/flickr_cat_000039.jpg,images/flickr_cat_000324.jpg,Eddy2,001,2021-08-23_11h38.16.131,Cat face experiment_0-249,2021.1.4,Win32,144.0092166
,,,,,,p,1.5605,0,35,35,35,1,35,images/flickr_cat_000040.jpg,images/flickr_cat_000325.jpg,Eddy2,001,2021-08-23_11h38.16.131,Cat face experiment_0-249,2021.1.4,Win32,144.0092166
,,,,,,p,2.4085,0,36,36,36,1,36,images/flickr_cat_000041.jpg,images/flickr_cat_000326.jpg,Eddy2,001,2021-08-23_11h38.16.131,Cat face experiment_0-249,2021.1.4,Win32,144.0092166
,,,,,,p,2.1924,0,37,37,37,1,37,images/flickr_cat_000042.jpg,images/flickr_cat_000327.jpg,Eddy2,001,2021-08-23_11h38.16.131,Cat face experiment_0-249,2021.1.4,Win32,144.0092166
,,,,,,q,2.0545,0,38,38,38,1,38,images/flickr_cat_000043.jpg,images/flickr_cat_000328.jpg,Eddy2,001,2021-08-23_11h38.16.131,Cat face experiment_0-249,2021.1.4,Win32,144.0092166
,,,,,,p,2.641,0,39,39,39,1,39,images/flickr_cat_000044.jpg,images/flickr_cat_000329.jpg,Eddy2,001,2021-08-23_11h38.16.131,Cat face experiment_0-249,2021.1.4,Win32,144.0092166
,,,,,,p,1.1732,0,40,40,40,1,40,images/flickr_cat_000045.jpg,images/flickr_cat_000330.jpg,Eddy2,001,2021-08-23_11h38.16.131,Cat face experiment_0-249,2021.1.4,Win32,144.0092166
,,,,,,q,1.2561,0,41,41,41,1,41,images/flickr_cat_000046.jpg,images/flickr_cat_000331.jpg,Eddy2,001,2021-08-23_11h38.16.131,Cat face experiment_0-249,2021.1.4,Win32,144.0092166
,,,,,,q,1.3944,0,42,42,42,1,42,images/flickr_cat_000047.jpg,images/flickr_cat_000332.jpg,Eddy2,001,2021-08-23_11h38.16.131,Cat face experiment_0-249,2021.1.4,Win32,144.0092166
,,,,,,q,1.5753,0,43,43,43,1,43,images/flickr_cat_000048.jpg,images/flickr_cat_000333.jpg,Eddy2,001,2021-08-23_11h38.16.131,Cat face experiment_0-249,2021.1.4,Win32,144.0092166
,,,,,,q,1.7482,0,44,44,44,1,44,images/flickr_cat_000049.jpg,images/flickr_cat_000334.jpg,Eddy2,001,2021-08-23_11h38.16.131,Cat face experiment_0-249,2021.1.4,Win32,144.0092166
,,,,,,q,1.1994,0,45,45,45,1,45,images/flickr_cat_000050.jpg,images/flickr_cat_000335.jpg,Eddy2,001,2021-08-23_11h38.16.131,Cat face experiment_0-249,2021.1.4,Win32,144.0092166
,,,,,,q,0.9915,0,46,46,46,1,46,images/flickr_cat_000051.jpg,images/flickr_cat_000336.jpg,Eddy2,001,2021-08-23_11h38.16.131,Cat face experiment_0-249,2021.1.4,Win32,144.0092166
,,,,,,p,1.2794,0,47,47,47,1,47,images/flickr_cat_000052.jpg,images/flickr_cat_000337.jpg,Eddy2,001,2021-08-23_11h38.16.131,Cat face experiment_0-249,2021.1.4,Win32,144.0092166
,,,,,,q,1.0196,0,48,48,48,1,48,images/flickr_cat_000053.jpg,images/flickr_cat_000338.jpg,Eddy2,001,2021-08-23_11h38.16.131,Cat face experiment_0-249,2021.1.4,Win32,144.0092166
,,,,,,q,1.4078,0,49,49,49,1,49,images/flickr_cat_000054.jpg,images/flickr_cat_000339.jpg,Eddy2,001,2021-08-23_11h38.16.131,Cat face experiment_0-249,2021.1.4,Win32,144.0092166
,,,,,,p,1.3535,0,50,50,50,1,50,images/flickr_cat_000055.jpg,images/flickr_cat_000340.jpg,Eddy2,001,2021-08-23_11h38.16.131,Cat face experiment_0-249,2021.1.4,Win32,144.0092166
,,,,,,p,1.4248,0,51,51,51,1,51,images/flickr_cat_000057.jpg,images/flickr_cat_000342.jpg,Eddy2,001,2021-08-23_11h38.16.131,Cat face experiment_0-249,2021.1.4,Win32,144.0092166
,,,,,,p,1.6767,0,52,52,52,1,52,images/flickr_cat_000058.jpg,images/flickr_cat_000343.jpg,Eddy2,001,2021-08-23_11h38.16.131,Cat face experiment_0-249,2021.1.4,Win32,144.0092166
,,,,,,p,1.3885,0,53,53,53,1,53,images/flickr_cat_000059.jpg,images/flickr_cat_000344.jpg,Eddy2,001,2021-08-23_11h38.16.131,Cat face experiment_0-249,2021.1.4,Win32,144.0092166
,,,,,,p,1.644,0,54,54,54,1,54,images/flickr_cat_000060.jpg,images/flickr_cat_000345.jpg,Eddy2,001,2021-08-23_11h38.16.131,Cat face experiment_0-249,2021.1.4,Win32,144.0092166
,,,,,,p,1.661,0,55,55,55,1,55,images/flickr_cat_000061.jpg,images/flickr_cat_000346.jpg,Eddy2,001,2021-08-23_11h38.16.131,Cat face experiment_0-249,2021.1.4,Win32,144.0092166
,,,,,,p,2.6531,0,56,56,56,1,56,images/flickr_cat_000062.jpg,images/flickr_cat_000347.jpg,Eddy2,001,2021-08-23_11h38.16.131,Cat face experiment_0-249,2021.1.4,Win32,144.0092166
,,,,,,p,1.2472,0,57,57,57,1,57,images/flickr_cat_000063.jpg,images/flickr_cat_000348.jpg,Eddy2,001,2021-08-23_11h38.16.131,Cat face experiment_0-249,2021.1.4,Win32,144.0092166
,,,,,,p,1.2354,0,58,58,58,1,58,images/flickr_cat_000064.jpg,images/flickr_cat_000349.jpg,Eddy2,001,2021-08-23_11h38.16.131,Cat face experiment_0-249,2021.1.4,Win32,144.0092166
,,,,,,p,1.819,0,59,59,59,1,59,images/flickr_cat_000065.jpg,images/flickr_cat_000352.jpg,Eddy2,001,2021-08-23_11h38.16.131,Cat face experiment_0-249,2021.1.4,Win32,144.0092166
,,,,,,q,1.1268,0,60,60,60,1,60,images/flickr_cat_000066.jpg,images/flickr_cat_000353.jpg,Eddy2,001,2021-08-23_11h38.16.131,Cat face experiment_0-249,2021.1.4,Win32,144.0092166
,,,,,,p,1.3487,0,61,61,61,1,61,images/flickr_cat_000067.jpg,images/flickr_cat_000354.jpg,Eddy2,001,2021-08-23_11h38.16.131,Cat face experiment_0-249,2021.1.4,Win32,144.0092166
,,,,,,p,0.8905,0,62,62,62,1,62,images/flickr_cat_000068.jpg,images/flickr_cat_000355.jpg,Eddy2,001,2021-08-23_11h38.16.131,Cat face experiment_0-249,2021.1.4,Win32,144.0092166
,,,,,,p,1.5404,0,63,63,63,1,63,images/flickr_cat_000069.jpg,images/flickr_cat_000356.jpg,Eddy2,001,2021-08-23_11h38.16.131,Cat face experiment_0-249,2021.1.4,Win32,144.0092166
,,,,,,q,1.0714,0,64,64,64,1,64,images/flickr_cat_000070.jpg,images/flickr_cat_000357.jpg,Eddy2,001,2021-08-23_11h38.16.131,Cat face experiment_0-249,2021.1.4,Win32,144.0092166
,,,,,,p,1.8056,0,65,65,65,1,65,images/flickr_cat_000071.jpg,images/flickr_cat_000358.jpg,Eddy2,001,2021-08-23_11h38.16.131,Cat face experiment_0-249,2021.1.4,Win32,144.0092166
,,,,,,q,1.3614,0,66,66,66,1,66,images/flickr_cat_000072.jpg,images/flickr_cat_000359.jpg,Eddy2,001,2021-08-23_11h38.16.131,Cat face experiment_0-249,2021.1.4,Win32,144.0092166
,,,,,,q,1.2984,0,67,67,67,1,67,images/flickr_cat_000073.jpg,images/flickr_cat_000360.jpg,Eddy2,001,2021-08-23_11h38.16.131,Cat face experiment_0-249,2021.1.4,Win32,144.0092166
,,,,,,q,1.5409,0,68,68,68,1,68,images/flickr_cat_000074.jpg,images/flickr_cat_000361.jpg,Eddy2,001,2021-08-23_11h38.16.131,Cat face experiment_0-249,2021.1.4,Win32,144.0092166
,,,,,,q,1.0783,0,69,69,69,1,69,images/flickr_cat_000075.jpg,images/flickr_cat_000362.jpg,Eddy2,001,2021-08-23_11h38.16.131,Cat face experiment_0-249,2021.1.4,Win32,144.0092166
,,,,,,q,1.5554,0,70,70,70,1,70,images/flickr_cat_000077.jpg,images/flickr_cat_000363.jpg,Eddy2,001,2021-08-23_11h38.16.131,Cat face experiment_0-249,2021.1.4,Win32,144.0092166
,,,,,,q,1.4353,0,71,71,71,1,71,images/flickr_cat_000078.jpg,images/flickr_cat_000364.jpg,Eddy2,001,2021-08-23_11h38.16.131,Cat face experiment_0-249,2021.1.4,Win32,144.0092166
,,,,,,p,0.9187,0,72,72,72,1,72,images/flickr_cat_000079.jpg,images/flickr_cat_000365.jpg,Eddy2,001,2021-08-23_11h38.16.131,Cat face experiment_0-249,2021.1.4,Win32,144.0092166
,,,,,,q,2.1786,0,73,73,73,1,73,images/flickr_cat_000081.jpg,images/flickr_cat_000366.jpg,Eddy2,001,2021-08-23_11h38.16.131,Cat face experiment_0-249,2021.1.4,Win32,144.0092166
,,,,,,q,1.4363,0,74,74,74,1,74,images/flickr_cat_000082.jpg,images/flickr_cat_000367.jpg,Eddy2,001,2021-08-23_11h38.16.131,Cat face experiment_0-249,2021.1.4,Win32,144.0092166
,,,,,,p,1.708,0,75,75,75,1,75,images/flickr_cat_000083.jpg,images/flickr_cat_000369.jpg,Eddy2,001,2021-08-23_11h38.16.131,Cat face experiment_0-249,2021.1.4,Win32,144.0092166
,,,,,,q,1.244,0,76,76,76,1,76,images/flickr_cat_000084.jpg,images/flickr_cat_000370.jpg,Eddy2,001,2021-08-23_11h38.16.131,Cat face experiment_0-249,2021.1.4,Win32,144.0092166
,,,,,,q,2.7203,0,77,77,77,1,77,images/flickr_cat_000085.jpg,images/flickr_cat_000371.jpg,Eddy2,001,2021-08-23_11h38.16.131,Cat face experiment_0-249,2021.1.4,Win32,144.0092166
,,,,,,p,1.5157,0,78,78,78,1,78,images/flickr_cat_000086.jpg,images/flickr_cat_000373.jpg,Eddy2,001,2021-08-23_11h38.16.131,Cat face experiment_0-249,2021.1.4,Win32,144.0092166
,,,,,,q,1.2984,0,79,79,79,1,79,images/flickr_cat_000087.jpg,images/flickr_cat_000374.jpg,Eddy2,001,2021-08-23_11h38.16.131,Cat face experiment_0-249,2021.1.4,Win32,144.0092166
,,,,,,p,1.6104,0,80,80,80,1,80,images/flickr_cat_000088.jpg,images/flickr_cat_000375.jpg,Eddy2,001,2021-08-23_11h38.16.131,Cat face experiment_0-249,2021.1.4,Win32,144.0092166
,,,,,,q,1.6647,0,81,81,81,1,81,images/flickr_cat_000089.jpg,images/flickr_cat_000376.jpg,Eddy2,001,2021-08-23_11h38.16.131,Cat face experiment_0-249,2021.1.4,Win32,144.0092166
,,,,,,q,1.3903,0,82,82,82,1,82,images/flickr_cat_000090.jpg,images/flickr_cat_000378.jpg,Eddy2,001,2021-08-23_11h38.16.131,Cat face experiment_0-249,2021.1.4,Win32,144.0092166
,,,,,,p,2.3528,0,83,83,83,1,83,images/flickr_cat_000091.jpg,images/flickr_cat_000379.jpg,Eddy2,001,2021-08-23_11h38.16.131,Cat face experiment_0-249,2021.1.4,Win32,144.0092166
,,,,,,q,1.1439,0,84,84,84,1,84,images/flickr_cat_000092.jpg,images/flickr_cat_000380.jpg,Eddy2,001,2021-08-23_11h38.16.131,Cat face experiment_0-249,2021.1.4,Win32,144.0092166
,,,,,,p,1.2542,0,85,85,85,1,85,images/flickr_cat_000093.jpg,images/flickr_cat_000381.jpg,Eddy2,001,2021-08-23_11h38.16.131,Cat face experiment_0-249,2021.1.4,Win32,144.0092166
,,,,,,q,1.4389,0,86,86,86,1,86,images/flickr_cat_000094.jpg,images/flickr_cat_000382.jpg,Eddy2,001,2021-08-23_11h38.16.131,Cat face experiment_0-249,2021.1.4,Win32,144.0092166
,,,,,,p,1.1023,0,87,87,87,1,87,images/flickr_cat_000095.jpg,images/flickr_cat_000383.jpg,Eddy2,001,2021-08-23_11h38.16.131,Cat face experiment_0-249,2021.1.4,Win32,144.0092166
,,,,,,p,1.3734,0,88,88,88,1,88,images/flickr_cat_000097.jpg,images/flickr_cat_000384.jpg,Eddy2,001,2021-08-23_11h38.16.131,Cat face experiment_0-249,2021.1.4,Win32,144.0092166
,,,,,,q,1.2346,0,89,89,89,1,89,images/flickr_cat_000098.jpg,images/flickr_cat_000385.jpg,Eddy2,001,2021-08-23_11h38.16.131,Cat face experiment_0-249,2021.1.4,Win32,144.0092166
,,,,,,p,0.9859,0,90,90,90,1,90,images/flickr_cat_000099.jpg,images/flickr_cat_000386.jpg,Eddy2,001,2021-08-23_11h38.16.131,Cat face experiment_0-249,2021.1.4,Win32,144.0092166
,,,,,,p,1.2553,0,91,91,91,1,91,images/flickr_cat_000100.jpg,images/flickr_cat_000388.jpg,Eddy2,001,2021-08-23_11h38.16.131,Cat face experiment_0-249,2021.1.4,Win32,144.0092166
,,,,,,q,0.9319,0,92,92,92,1,92,images/flickr_cat_000101.jpg,images/flickr_cat_000389.jpg,Eddy2,001,2021-08-23_11h38.16.131,Cat face experiment_0-249,2021.1.4,Win32,144.0092166
,,,,,,p,0.88,0,93,93,93,1,93,images/flickr_cat_000102.jpg,images/flickr_cat_000390.jpg,Eddy2,001,2021-08-23_11h38.16.131,Cat face experiment_0-249,2021.1.4,Win32,144.0092166
,,,,,,q,1.0047,0,94,94,94,1,94,images/flickr_cat_000103.jpg,images/flickr_cat_000391.jpg,Eddy2,001,2021-08-23_11h38.16.131,Cat face experiment_0-249,2021.1.4,Win32,144.0092166
,,,,,,q,0.8707,0,95,95,95,1,95,images/flickr_cat_000104.jpg,images/flickr_cat_000392.jpg,Eddy2,001,2021-08-23_11h38.16.131,Cat face experiment_0-249,2021.1.4,Win32,144.0092166
,,,,,,q,0.8808,0,96,96,96,1,96,images/flickr_cat_000105.jpg,images/flickr_cat_000393.jpg,Eddy2,001,2021-08-23_11h38.16.131,Cat face experiment_0-249,2021.1.4,Win32,144.0092166
,,,,,,q,1.3942,0,97,97,97,1,97,images/flickr_cat_000106.jpg,images/flickr_cat_000394.jpg,Eddy2,001,2021-08-23_11h38.16.131,Cat face experiment_0-249,2021.1.4,Win32,144.0092166
,,,,,,q,1.2973,0,98,98,98,1,98,images/flickr_cat_000107.jpg,images/flickr_cat_000395.jpg,Eddy2,001,2021-08-23_11h38.16.131,Cat face experiment_0-249,2021.1.4,Win32,144.0092166
,,,,,,q,1.1183,0,99,99,99,1,99,images/flickr_cat_000109.jpg,images/flickr_cat_000396.jpg,Eddy2,001,2021-08-23_11h38.16.131,Cat face experiment_0-249,2021.1.4,Win32,144.0092166
,,,,,,p,1.5958,0,100,100,100,1,100,images/flickr_cat_000110.jpg,images/flickr_cat_000397.jpg,Eddy2,001,2021-08-23_11h38.16.131,Cat face experiment_0-249,2021.1.4,Win32,144.0092166
,,,,,,p,1.4789,0,101,101,101,1,101,images/flickr_cat_000111.jpg,images/flickr_cat_000398.jpg,Eddy2,001,2021-08-23_11h38.16.131,Cat face experiment_0-249,2021.1.4,Win32,144.0092166
,,,,,,q,1.9083,0,102,102,102,1,102,images/flickr_cat_000112.jpg,images/flickr_cat_000399.jpg,Eddy2,001,2021-08-23_11h38.16.131,Cat face experiment_0-249,2021.1.4,Win32,144.0092166
,,,,,,q,1.6862,0,103,103,103,1,103,images/flickr_cat_000113.jpg,images/flickr_cat_000400.jpg,Eddy2,001,2021-08-23_11h38.16.131,Cat face experiment_0-249,2021.1.4,Win32,144.0092166
,,,,,,q,5.0493,0,104,104,104,1,104,images/flickr_cat_000114.jpg,images/flickr_cat_000401.jpg,Eddy2,001,2021-08-23_11h38.16.131,Cat face experiment_0-249,2021.1.4,Win32,144.0092166
,,,,,,p,3.0263,0,105,105,105,1,105,images/flickr_cat_000115.jpg,images/flickr_cat_000402.jpg,Eddy2,001,2021-08-23_11h38.16.131,Cat face experiment_0-249,2021.1.4,Win32,144.0092166
,,,,,,p,0.7696,0,106,106,106,1,106,images/flickr_cat_000116.jpg,images/flickr_cat_000403.jpg,Eddy2,001,2021-08-23_11h38.16.131,Cat face experiment_0-249,2021.1.4,Win32,144.0092166
,,,,,,p,3.7758,0,107,107,107,1,107,images/flickr_cat_000117.jpg,images/flickr_cat_000404.jpg,Eddy2,001,2021-08-23_11h38.16.131,Cat face experiment_0-249,2021.1.4,Win32,144.0092166
,,,,,,q,2.169,0,108,108,108,1,108,images/flickr_cat_000118.jpg,images/flickr_cat_000405.jpg,Eddy2,001,2021-08-23_11h38.16.131,Cat face experiment_0-249,2021.1.4,Win32,144.0092166
,,,,,,p,1.7245,0,109,109,109,1,109,images/flickr_cat_000119.jpg,images/flickr_cat_000406.jpg,Eddy2,001,2021-08-23_11h38.16.131,Cat face experiment_0-249,2021.1.4,Win32,144.0092166
,,,,,,p,0.8562,0,110,110,110,1,110,images/flickr_cat_000120.jpg,images/flickr_cat_000407.jpg,Eddy2,001,2021-08-23_11h38.16.131,Cat face experiment_0-249,2021.1.4,Win32,144.0092166
,,,,,,p,1.0664,0,111,111,111,1,111,images/flickr_cat_000121.jpg,images/flickr_cat_000408.jpg,Eddy2,001,2021-08-23_11h38.16.131,Cat face experiment_0-249,2021.1.4,Win32,144.0092166
,,,,,,q,1.0756,0,112,112,112,1,112,images/flickr_cat_000122.jpg,images/flickr_cat_000409.jpg,Eddy2,001,2021-08-23_11h38.16.131,Cat face experiment_0-249,2021.1.4,Win32,144.0092166
,,,,,,q,1.6174,0,113,113,113,1,113,images/flickr_cat_000124.jpg,images/flickr_cat_000410.jpg,Eddy2,001,2021-08-23_11h38.16.131,Cat face experiment_0-249,2021.1.4,Win32,144.0092166
,,,,,,p,2.0684,0,114,114,114,1,114,images/flickr_cat_000125.jpg,images/flickr_cat_000411.jpg,Eddy2,001,2021-08-23_11h38.16.131,Cat face experiment_0-249,2021.1.4,Win32,144.0092166
,,,,,,p,1.8392,0,115,115,115,1,115,images/flickr_cat_000126.jpg,images/flickr_cat_000412.jpg,Eddy2,001,2021-08-23_11h38.16.131,Cat face experiment_0-249,2021.1.4,Win32,144.0092166
,,,,,,q,0.9298,0,116,116,116,1,116,images/flickr_cat_000127.jpg,images/flickr_cat_000413.jpg,Eddy2,001,2021-08-23_11h38.16.131,Cat face experiment_0-249,2021.1.4,Win32,144.0092166
,,,,,,p,0.9617,0,117,117,117,1,117,images/flickr_cat_000128.jpg,images/flickr_cat_000414.jpg,Eddy2,001,2021-08-23_11h38.16.131,Cat face experiment_0-249,2021.1.4,Win32,144.0092166
,,,,,,q,1.3316,0,118,118,118,1,118,images/flickr_cat_000129.jpg,images/flickr_cat_000415.jpg,Eddy2,001,2021-08-23_11h38.16.131,Cat face experiment_0-249,2021.1.4,Win32,144.0092166
,,,,,,q,1.227,0,119,119,119,1,119,images/flickr_cat_000130.jpg,images/flickr_cat_000416.jpg,Eddy2,001,2021-08-23_11h38.16.131,Cat face experiment_0-249,2021.1.4,Win32,144.0092166
,,,,,,q,1.9496,0,120,120,120,1,120,images/flickr_cat_000131.jpg,images/flickr_cat_000417.jpg,Eddy2,001,2021-08-23_11h38.16.131,Cat face experiment_0-249,2021.1.4,Win32,144.0092166
,,,,,,q,1.0475,0,121,121,121,1,121,images/flickr_cat_000132.jpg,images/flickr_cat_000420.jpg,Eddy2,001,2021-08-23_11h38.16.131,Cat face experiment_0-249,2021.1.4,Win32,144.0092166
,,,,,,p,1.5063,0,122,122,122,1,122,images/flickr_cat_000133.jpg,images/flickr_cat_000421.jpg,Eddy2,001,2021-08-23_11h38.16.131,Cat face experiment_0-249,2021.1.4,Win32,144.0092166
,,,,,,p,1.32,0,123,123,123,1,123,images/flickr_cat_000134.jpg,images/flickr_cat_000422.jpg,Eddy2,001,2021-08-23_11h38.16.131,Cat face experiment_0-249,2021.1.4,Win32,144.0092166
,,,,,,q,0.9502,0,124,124,124,1,124,images/flickr_cat_000135.jpg,images/flickr_cat_000423.jpg,Eddy2,001,2021-08-23_11h38.16.131,Cat face experiment_0-249,2021.1.4,Win32,144.0092166
,,,,,,p,3.3335,0,125,125,125,1,125,images/flickr_cat_000137.jpg,images/flickr_cat_000424.jpg,Eddy2,001,2021-08-23_11h38.16.131,Cat face experiment_0-249,2021.1.4,Win32,144.0092166
,,,,,,p,1.429,0,126,126,126,1,126,images/flickr_cat_000138.jpg,images/flickr_cat_000425.jpg,Eddy2,001,2021-08-23_11h38.16.131,Cat face experiment_0-249,2021.1.4,Win32,144.0092166
,,,,,,q,0.8801,0,127,127,127,1,127,images/flickr_cat_000139.jpg,images/flickr_cat_000426.jpg,Eddy2,001,2021-08-23_11h38.16.131,Cat face experiment_0-249,2021.1.4,Win32,144.0092166
,,,,,,q,1.0405,0,128,128,128,1,128,images/flickr_cat_000140.jpg,images/flickr_cat_000427.jpg,Eddy2,001,2021-08-23_11h38.16.131,Cat face experiment_0-249,2021.1.4,Win32,144.0092166
,,,,,,p,1.5345,0,129,129,129,1,129,images/flickr_cat_000141.jpg,images/flickr_cat_000428.jpg,Eddy2,001,2021-08-23_11h38.16.131,Cat face experiment_0-249,2021.1.4,Win32,144.0092166
,,,,,,p,1.0029,0,130,130,130,1,130,images/flickr_cat_000142.jpg,images/flickr_cat_000429.jpg,Eddy2,001,2021-08-23_11h38.16.131,Cat face experiment_0-249,2021.1.4,Win32,144.0092166
,,,,,,p,0.8867,0,131,131,131,1,131,images/flickr_cat_000143.jpg,images/flickr_cat_000430.jpg,Eddy2,001,2021-08-23_11h38.16.131,Cat face experiment_0-249,2021.1.4,Win32,144.0092166
,,,,,,p,2.486,0,132,132,132,1,132,images/flickr_cat_000144.jpg,images/flickr_cat_000431.jpg,Eddy2,001,2021-08-23_11h38.16.131,Cat face experiment_0-249,2021.1.4,Win32,144.0092166
,,,,,,p,1.1064,0,133,133,133,1,133,images/flickr_cat_000145.jpg,images/flickr_cat_000432.jpg,Eddy2,001,2021-08-23_11h38.16.131,Cat face experiment_0-249,2021.1.4,Win32,144.0092166
,,,,,,p,3.0123,0,134,134,134,1,134,images/flickr_cat_000146.jpg,images/flickr_cat_000433.jpg,Eddy2,001,2021-08-23_11h38.16.131,Cat face experiment_0-249,2021.1.4,Win32,144.0092166
,,,,,,p,0.9706,0,135,135,135,1,135,images/flickr_cat_000147.jpg,images/flickr_cat_000434.jpg,Eddy2,001,2021-08-23_11h38.16.131,Cat face experiment_0-249,2021.1.4,Win32,144.0092166
,,,,,,q,1.5825,0,136,136,136,1,136,images/flickr_cat_000148.jpg,images/flickr_cat_000435.jpg,Eddy2,001,2021-08-23_11h38.16.131,Cat face experiment_0-249,2021.1.4,Win32,144.0092166
,,,,,,q,1.3528,0,137,137,137,1,137,images/flickr_cat_000149.jpg,images/flickr_cat_000436.jpg,Eddy2,001,2021-08-23_11h38.16.131,Cat face experiment_0-249,2021.1.4,Win32,144.0092166
,,,,,,q,1.6959,0,138,138,138,1,138,images/flickr_cat_000150.jpg,images/flickr_cat_000438.jpg,Eddy2,001,2021-08-23_11h38.16.131,Cat face experiment_0-249,2021.1.4,Win32,144.0092166
,,,,,,q,0.9425,0,139,139,139,1,139,images/flickr_cat_000151.jpg,images/flickr_cat_000439.jpg,Eddy2,001,2021-08-23_11h38.16.131,Cat face experiment_0-249,2021.1.4,Win32,144.0092166
,,,,,,p,1.2963,0,140,140,140,1,140,images/flickr_cat_000153.jpg,images/flickr_cat_000440.jpg,Eddy2,001,2021-08-23_11h38.16.131,Cat face experiment_0-249,2021.1.4,Win32,144.0092166
,,,,,,p,1.6083,0,141,141,141,1,141,images/flickr_cat_000154.jpg,images/flickr_cat_000442.jpg,Eddy2,001,2021-08-23_11h38.16.131,Cat face experiment_0-249,2021.1.4,Win32,144.0092166
,,,,,,p,1.3686,0,142,142,142,1,142,images/flickr_cat_000155.jpg,images/flickr_cat_000443.jpg,Eddy2,001,2021-08-23_11h38.16.131,Cat face experiment_0-249,2021.1.4,Win32,144.0092166
,,,,,,p,2.5738,0,143,143,143,1,143,images/flickr_cat_000156.jpg,images/flickr_cat_000444.jpg,Eddy2,001,2021-08-23_11h38.16.131,Cat face experiment_0-249,2021.1.4,Win32,144.0092166
,,,,,,q,1.0961,0,144,144,144,1,144,images/flickr_cat_000157.jpg,images/flickr_cat_000445.jpg,Eddy2,001,2021-08-23_11h38.16.131,Cat face experiment_0-249,2021.1.4,Win32,144.0092166
,,,,,,q,1.4322,0,145,145,145,1,145,images/flickr_cat_000158.jpg,images/flickr_cat_000447.jpg,Eddy2,001,2021-08-23_11h38.16.131,Cat face experiment_0-249,2021.1.4,Win32,144.0092166
,,,,,,p,2.15,0,146,146,146,1,146,images/flickr_cat_000159.jpg,images/flickr_cat_000448.jpg,Eddy2,001,2021-08-23_11h38.16.131,Cat face experiment_0-249,2021.1.4,Win32,144.0092166
,,,,,,q,1.0291,0,147,147,147,1,147,images/flickr_cat_000160.jpg,images/flickr_cat_000449.jpg,Eddy2,001,2021-08-23_11h38.16.131,Cat face experiment_0-249,2021.1.4,Win32,144.0092166
,,,,,,q,1.2765,0,148,148,148,1,148,images/flickr_cat_000161.jpg,images/flickr_cat_000450.jpg,Eddy2,001,2021-08-23_11h38.16.131,Cat face experiment_0-249,2021.1.4,Win32,144.0092166
,,,,,,q,1.1706,0,149,149,149,1,149,images/flickr_cat_000163.jpg,images/flickr_cat_000451.jpg,Eddy2,001,2021-08-23_11h38.16.131,Cat face experiment_0-249,2021.1.4,Win32,144.0092166
,,,,,,q,2.2034,0,150,150,150,1,150,images/flickr_cat_000164.jpg,images/flickr_cat_000452.jpg,Eddy2,001,2021-08-23_11h38.16.131,Cat face experiment_0-249,2021.1.4,Win32,144.0092166
,,,,,,p,3.1399,0,151,151,151,1,151,images/flickr_cat_000166.jpg,images/flickr_cat_000453.jpg,Eddy2,001,2021-08-23_11h38.16.131,Cat face experiment_0-249,2021.1.4,Win32,144.0092166
,,,,,,p,0.8749,0,152,152,152,1,152,images/flickr_cat_000167.jpg,images/flickr_cat_000454.jpg,Eddy2,001,2021-08-23_11h38.16.131,Cat face experiment_0-249,2021.1.4,Win32,144.0092166
,,,,,,p,2.0979,0,153,153,153,1,153,images/flickr_cat_000168.jpg,images/flickr_cat_000455.jpg,Eddy2,001,2021-08-23_11h38.16.131,Cat face experiment_0-249,2021.1.4,Win32,144.0092166
,,,,,,q,1.243,0,154,154,154,1,154,images/flickr_cat_000169.jpg,images/flickr_cat_000456.jpg,Eddy2,001,2021-08-23_11h38.16.131,Cat face experiment_0-249,2021.1.4,Win32,144.0092166
,,,,,,q,1.5468,0,155,155,155,1,155,images/flickr_cat_000170.jpg,images/flickr_cat_000457.jpg,Eddy2,001,2021-08-23_11h38.16.131,Cat face experiment_0-249,2021.1.4,Win32,144.0092166
,,,,,,q,1.0267,0,156,156,156,1,156,images/flickr_cat_000171.jpg,images/flickr_cat_000458.jpg,Eddy2,001,2021-08-23_11h38.16.131,Cat face experiment_0-249,2021.1.4,Win32,144.0092166
,,,,,,q,1.2062,0,157,157,157,1,157,images/flickr_cat_000172.jpg,images/flickr_cat_000459.jpg,Eddy2,001,2021-08-23_11h38.16.131,Cat face experiment_0-249,2021.1.4,Win32,144.0092166
,,,,,,q,0.9433,0,158,158,158,1,158,images/flickr_cat_000173.jpg,images/flickr_cat_000460.jpg,Eddy2,001,2021-08-23_11h38.16.131,Cat face experiment_0-249,2021.1.4,Win32,144.0092166
,,,,,,p,1.9784,0,159,159,159,1,159,images/flickr_cat_000178.jpg,images/flickr_cat_000461.jpg,Eddy2,001,2021-08-23_11h38.16.131,Cat face experiment_0-249,2021.1.4,Win32,144.0092166
,,,,,,p,1.4798,0,160,160,160,1,160,images/flickr_cat_000179.jpg,images/flickr_cat_000462.jpg,Eddy2,001,2021-08-23_11h38.16.131,Cat face experiment_0-249,2021.1.4,Win32,144.0092166
,,,,,,p,1.2134,0,161,161,161,1,161,images/flickr_cat_000181.jpg,images/flickr_cat_000463.jpg,Eddy2,001,2021-08-23_11h38.16.131,Cat face experiment_0-249,2021.1.4,Win32,144.0092166
,,,,,,q,1.1438,0,162,162,162,1,162,images/flickr_cat_000185.jpg,images/flickr_cat_000464.jpg,Eddy2,001,2021-08-23_11h38.16.131,Cat face experiment_0-249,2021.1.4,Win32,144.0092166
,,,,,,q,0.8237,0,163,163,163,1,163,images/flickr_cat_000186.jpg,images/flickr_cat_000465.jpg,Eddy2,001,2021-08-23_11h38.16.131,Cat face experiment_0-249,2021.1.4,Win32,144.0092166
,,,,,,p,3.3125,0,164,164,164,1,164,images/flickr_cat_000187.jpg,images/flickr_cat_000466.jpg,Eddy2,001,2021-08-23_11h38.16.131,Cat face experiment_0-249,2021.1.4,Win32,144.0092166
,,,,,,q,1.5976,0,165,165,165,1,165,images/flickr_cat_000188.jpg,images/flickr_cat_000467.jpg,Eddy2,001,2021-08-23_11h38.16.131,Cat face experiment_0-249,2021.1.4,Win32,144.0092166
,,,,,,q,1.9735,0,166,166,166,1,166,images/flickr_cat_000189.jpg,images/flickr_cat_000468.jpg,Eddy2,001,2021-08-23_11h38.16.131,Cat face experiment_0-249,2021.1.4,Win32,144.0092166
,,,,,,p,1.2585,0,167,167,167,1,167,images/flickr_cat_000190.jpg,images/flickr_cat_000469.jpg,Eddy2,001,2021-08-23_11h38.16.131,Cat face experiment_0-249,2021.1.4,Win32,144.0092166
,,,,,,q,1.02,0,168,168,168,1,168,images/flickr_cat_000192.jpg,images/flickr_cat_000470.jpg,Eddy2,001,2021-08-23_11h38.16.131,Cat face experiment_0-249,2021.1.4,Win32,144.0092166
,,,,,,p,1.0188,0,169,169,169,1,169,images/flickr_cat_000193.jpg,images/flickr_cat_000471.jpg,Eddy2,001,2021-08-23_11h38.16.131,Cat face experiment_0-249,2021.1.4,Win32,144.0092166
,,,,,,p,1.2475,0,170,170,170,1,170,images/flickr_cat_000194.jpg,images/flickr_cat_000472.jpg,Eddy2,001,2021-08-23_11h38.16.131,Cat face experiment_0-249,2021.1.4,Win32,144.0092166
,,,,,,p,2.407,0,171,171,171,1,171,images/flickr_cat_000195.jpg,images/flickr_cat_000473.jpg,Eddy2,001,2021-08-23_11h38.16.131,Cat face experiment_0-249,2021.1.4,Win32,144.0092166
,,,,,,q,1.3034,0,172,172,172,1,172,images/flickr_cat_000196.jpg,images/flickr_cat_000474.jpg,Eddy2,001,2021-08-23_11h38.16.131,Cat face experiment_0-249,2021.1.4,Win32,144.0092166
,,,,,,p,2.0326,0,173,173,173,1,173,images/flickr_cat_000197.jpg,images/flickr_cat_000475.jpg,Eddy2,001,2021-08-23_11h38.16.131,Cat face experiment_0-249,2021.1.4,Win32,144.0092166
,,,,,,q,0.9855,0,174,174,174,1,174,images/flickr_cat_000198.jpg,images/flickr_cat_000476.jpg,Eddy2,001,2021-08-23_11h38.16.131,Cat face experiment_0-249,2021.1.4,Win32,144.0092166
,,,,,,q,1.1924,0,175,175,175,1,175,images/flickr_cat_000199.jpg,images/flickr_cat_000477.jpg,Eddy2,001,2021-08-23_11h38.16.131,Cat face experiment_0-249,2021.1.4,Win32,144.0092166
,,,,,,p,2.2302,0,176,176,176,1,176,images/flickr_cat_000200.jpg,images/flickr_cat_000478.jpg,Eddy2,001,2021-08-23_11h38.16.131,Cat face experiment_0-249,2021.1.4,Win32,144.0092166
,,,,,,q,1.2548,0,177,177,177,1,177,images/flickr_cat_000201.jpg,images/flickr_cat_000479.jpg,Eddy2,001,2021-08-23_11h38.16.131,Cat face experiment_0-249,2021.1.4,Win32,144.0092166
,,,,,,p,0.9899,0,178,178,178,1,178,images/flickr_cat_000202.jpg,images/flickr_cat_000480.jpg,Eddy2,001,2021-08-23_11h38.16.131,Cat face experiment_0-249,2021.1.4,Win32,144.0092166
,,,,,,q,0.9796,0,179,179,179,1,179,images/flickr_cat_000203.jpg,images/flickr_cat_000481.jpg,Eddy2,001,2021-08-23_11h38.16.131,Cat face experiment_0-249,2021.1.4,Win32,144.0092166
,,,,,,p,0.7556,0,180,180,180,1,180,images/flickr_cat_000204.jpg,images/flickr_cat_000482.jpg,Eddy2,001,2021-08-23_11h38.16.131,Cat face experiment_0-249,2021.1.4,Win32,144.0092166
,,,,,,q,0.7681,0,181,181,181,1,181,images/flickr_cat_000205.jpg,images/flickr_cat_000483.jpg,Eddy2,001,2021-08-23_11h38.16.131,Cat face experiment_0-249,2021.1.4,Win32,144.0092166
,,,,,,p,2.0479,0,182,182,182,1,182,images/flickr_cat_000206.jpg,images/flickr_cat_000484.jpg,Eddy2,001,2021-08-23_11h38.16.131,Cat face experiment_0-249,2021.1.4,Win32,144.0092166
,,,,,,p,0.9705,0,183,183,183,1,183,images/flickr_cat_000207.jpg,images/flickr_cat_000485.jpg,Eddy2,001,2021-08-23_11h38.16.131,Cat face experiment_0-249,2021.1.4,Win32,144.0092166
,,,,,,p,1.353,0,184,184,184,1,184,images/flickr_cat_000209.jpg,images/flickr_cat_000486.jpg,Eddy2,001,2021-08-23_11h38.16.131,Cat face experiment_0-249,2021.1.4,Win32,144.0092166
,,,,,,q,1.0397,0,185,185,185,1,185,images/flickr_cat_000210.jpg,images/flickr_cat_000487.jpg,Eddy2,001,2021-08-23_11h38.16.131,Cat face experiment_0-249,2021.1.4,Win32,144.0092166
,,,,,,p,0.9994,0,186,186,186,1,186,images/flickr_cat_000211.jpg,images/flickr_cat_000488.jpg,Eddy2,001,2021-08-23_11h38.16.131,Cat face experiment_0-249,2021.1.4,Win32,144.0092166
,,,,,,p,1.4083,0,187,187,187,1,187,images/flickr_cat_000212.jpg,images/flickr_cat_000489.jpg,Eddy2,001,2021-08-23_11h38.16.131,Cat face experiment_0-249,2021.1.4,Win32,144.0092166
,,,,,,p,1.2762,0,188,188,188,1,188,images/flickr_cat_000213.jpg,images/flickr_cat_000490.jpg,Eddy2,001,2021-08-23_11h38.16.131,Cat face experiment_0-249,2021.1.4,Win32,144.0092166
,,,,,,p,1.3348,0,189,189,189,1,189,images/flickr_cat_000214.jpg,images/flickr_cat_000491.jpg,Eddy2,001,2021-08-23_11h38.16.131,Cat face experiment_0-249,2021.1.4,Win32,144.0092166
,,,,,,p,1.6999,0,190,190,190,1,190,images/flickr_cat_000215.jpg,images/flickr_cat_000492.jpg,Eddy2,001,2021-08-23_11h38.16.131,Cat face experiment_0-249,2021.1.4,Win32,144.0092166
,,,,,,q,1.0401,0,191,191,191,1,191,images/flickr_cat_000217.jpg,images/flickr_cat_000493.jpg,Eddy2,001,2021-08-23_11h38.16.131,Cat face experiment_0-249,2021.1.4,Win32,144.0092166
,,,,,,q,4.8736,0,192,192,192,1,192,images/flickr_cat_000218.jpg,images/flickr_cat_000494.jpg,Eddy2,001,2021-08-23_11h38.16.131,Cat face experiment_0-249,2021.1.4,Win32,144.0092166
,,,,,,q,1.3475,0,193,193,193,1,193,images/flickr_cat_000219.jpg,images/flickr_cat_000496.jpg,Eddy2,001,2021-08-23_11h38.16.131,Cat face experiment_0-249,2021.1.4,Win32,144.0092166
,,,,,,p,2.2142,0,194,194,194,1,194,images/flickr_cat_000220.jpg,images/flickr_cat_000497.jpg,Eddy2,001,2021-08-23_11h38.16.131,Cat face experiment_0-249,2021.1.4,Win32,144.0092166
,,,,,,p,1.3193,0,195,195,195,1,195,images/flickr_cat_000221.jpg,images/flickr_cat_000498.jpg,Eddy2,001,2021-08-23_11h38.16.131,Cat face experiment_0-249,2021.1.4,Win32,144.0092166
,,,,,,q,1.124,0,196,196,196,1,196,images/flickr_cat_000222.jpg,images/flickr_cat_000499.jpg,Eddy2,001,2021-08-23_11h38.16.131,Cat face experiment_0-249,2021.1.4,Win32,144.0092166
,,,,,,p,0.8386,0,197,197,197,1,197,images/flickr_cat_000223.jpg,images/flickr_cat_000500.jpg,Eddy2,001,2021-08-23_11h38.16.131,Cat face experiment_0-249,2021.1.4,Win32,144.0092166
,,,,,,q,0.9323,0,198,198,198,1,198,images/flickr_cat_000224.jpg,images/flickr_cat_000501.jpg,Eddy2,001,2021-08-23_11h38.16.131,Cat face experiment_0-249,2021.1.4,Win32,144.0092166
,,,,,,q,1.2008,0,199,199,199,1,199,images/flickr_cat_000225.jpg,images/flickr_cat_000502.jpg,Eddy2,001,2021-08-23_11h38.16.131,Cat face experiment_0-249,2021.1.4,Win32,144.0092166
,,,,,,p,1.6574,0,200,200,200,1,200,images/flickr_cat_000227.jpg,images/flickr_cat_000503.jpg,Eddy2,001,2021-08-23_11h38.16.131,Cat face experiment_0-249,2021.1.4,Win32,144.0092166
,,,,,,p,0.8664,0,201,201,201,1,201,images/flickr_cat_000228.jpg,images/flickr_cat_000504.jpg,Eddy2,001,2021-08-23_11h38.16.131,Cat face experiment_0-249,2021.1.4,Win32,144.0092166
,,,,,,q,0.9105,0,202,202,202,1,202,images/flickr_cat_000229.jpg,images/flickr_cat_000505.jpg,Eddy2,001,2021-08-23_11h38.16.131,Cat face experiment_0-249,2021.1.4,Win32,144.0092166
,,,,,,q,2.9153,0,203,203,203,1,203,images/flickr_cat_000231.jpg,images/flickr_cat_000506.jpg,Eddy2,001,2021-08-23_11h38.16.131,Cat face experiment_0-249,2021.1.4,Win32,144.0092166
,,,,,,q,0.929,0,204,204,204,1,204,images/flickr_cat_000234.jpg,images/flickr_cat_000507.jpg,Eddy2,001,2021-08-23_11h38.16.131,Cat face experiment_0-249,2021.1.4,Win32,144.0092166
,,,,,,q,2.0881,0,205,205,205,1,205,images/flickr_cat_000235.jpg,images/flickr_cat_000508.jpg,Eddy2,001,2021-08-23_11h38.16.131,Cat face experiment_0-249,2021.1.4,Win32,144.0092166
,,,,,,q,1.0008,0,206,206,206,1,206,images/flickr_cat_000237.jpg,images/flickr_cat_000509.jpg,Eddy2,001,2021-08-23_11h38.16.131,Cat face experiment_0-249,2021.1.4,Win32,144.0092166
,,,,,,p,1.8892,0,207,207,207,1,207,images/flickr_cat_000239.jpg,images/flickr_cat_000510.jpg,Eddy2,001,2021-08-23_11h38.16.131,Cat face experiment_0-249,2021.1.4,Win32,144.0092166
,,,,,,p,1.422,0,208,208,208,1,208,images/flickr_cat_000240.jpg,images/flickr_cat_000511.jpg,Eddy2,001,2021-08-23_11h38.16.131,Cat face experiment_0-249,2021.1.4,Win32,144.0092166
,,,,,,p,1.2844,0,209,209,209,1,209,images/flickr_cat_000241.jpg,images/flickr_cat_000512.jpg,Eddy2,001,2021-08-23_11h38.16.131,Cat face experiment_0-249,2021.1.4,Win32,144.0092166
,,,,,,q,0.8182,0,210,210,210,1,210,images/flickr_cat_000242.jpg,images/flickr_cat_000513.jpg,Eddy2,001,2021-08-23_11h38.16.131,Cat face experiment_0-249,2021.1.4,Win32,144.0092166
,,,,,,q,6.6021,0,211,211,211,1,211,images/flickr_cat_000243.jpg,images/flickr_cat_000515.jpg,Eddy2,001,2021-08-23_11h38.16.131,Cat face experiment_0-249,2021.1.4,Win32,144.0092166
,,,,,,q,0.9854,0,212,212,212,1,212,images/flickr_cat_000244.jpg,images/flickr_cat_000516.jpg,Eddy2,001,2021-08-23_11h38.16.131,Cat face experiment_0-249,2021.1.4,Win32,144.0092166
,,,,,,q,1.3813,0,213,213,213,1,213,images/flickr_cat_000245.jpg,images/flickr_cat_000517.jpg,Eddy2,001,2021-08-23_11h38.16.131,Cat face experiment_0-249,2021.1.4,Win32,144.0092166
,,,,,,p,0.9024,0,214,214,214,1,214,images/flickr_cat_000246.jpg,images/flickr_cat_000518.jpg,Eddy2,001,2021-08-23_11h38.16.131,Cat face experiment_0-249,2021.1.4,Win32,144.0092166
,,,,,,p,1.1744,0,215,215,215,1,215,images/flickr_cat_000247.jpg,images/flickr_cat_000519.jpg,Eddy2,001,2021-08-23_11h38.16.131,Cat face experiment_0-249,2021.1.4,Win32,144.0092166
,,,,,,q,2.0927,0,216,216,216,1,216,images/flickr_cat_000248.jpg,images/flickr_cat_000520.jpg,Eddy2,001,2021-08-23_11h38.16.131,Cat face experiment_0-249,2021.1.4,Win32,144.0092166
,,,,,,q,1.9145,0,217,217,217,1,217,images/flickr_cat_000249.jpg,images/flickr_cat_000521.jpg,Eddy2,001,2021-08-23_11h38.16.131,Cat face experiment_0-249,2021.1.4,Win32,144.0092166
,,,,,,p,1.1373,0,218,218,218,1,218,images/flickr_cat_000250.jpg,images/flickr_cat_000523.jpg,Eddy2,001,2021-08-23_11h38.16.131,Cat face experiment_0-249,2021.1.4,Win32,144.0092166
,,,,,,p,1.5122,0,219,219,219,1,219,images/flickr_cat_000251.jpg,images/flickr_cat_000524.jpg,Eddy2,001,2021-08-23_11h38.16.131,Cat face experiment_0-249,2021.1.4,Win32,144.0092166
,,,,,,q,1.0558,0,220,220,220,1,220,images/flickr_cat_000252.jpg,images/flickr_cat_000525.jpg,Eddy2,001,2021-08-23_11h38.16.131,Cat face experiment_0-249,2021.1.4,Win32,144.0092166
,,,,,,p,1.2232,0,221,221,221,1,221,images/flickr_cat_000254.jpg,images/flickr_cat_000527.jpg,Eddy2,001,2021-08-23_11h38.16.131,Cat face experiment_0-249,2021.1.4,Win32,144.0092166
,,,,,,p,1.0465,0,222,222,222,1,222,images/flickr_cat_000255.jpg,images/flickr_cat_000528.jpg,Eddy2,001,2021-08-23_11h38.16.131,Cat face experiment_0-249,2021.1.4,Win32,144.0092166
,,,,,,p,1.9887,0,223,223,223,1,223,images/flickr_cat_000256.jpg,images/flickr_cat_000530.jpg,Eddy2,001,2021-08-23_11h38.16.131,Cat face experiment_0-249,2021.1.4,Win32,144.0092166
,,,,,,q,1.2499,0,224,224,224,1,224,images/flickr_cat_000257.jpg,images/flickr_cat_000531.jpg,Eddy2,001,2021-08-23_11h38.16.131,Cat face experiment_0-249,2021.1.4,Win32,144.0092166
,,,,,,p,1.3531,0,225,225,225,1,225,images/flickr_cat_000258.jpg,images/flickr_cat_000532.jpg,Eddy2,001,2021-08-23_11h38.16.131,Cat face experiment_0-249,2021.1.4,Win32,144.0092166
,,,,,,p,0.937,0,226,226,226,1,226,images/flickr_cat_000259.jpg,images/flickr_cat_000533.jpg,Eddy2,001,2021-08-23_11h38.16.131,Cat face experiment_0-249,2021.1.4,Win32,144.0092166
,,,,,,q,1.9163,0,227,227,227,1,227,images/flickr_cat_000260.jpg,images/flickr_cat_000537.jpg,Eddy2,001,2021-08-23_11h38.16.131,Cat face experiment_0-249,2021.1.4,Win32,144.0092166
,,,,,,q,1.4705,0,228,228,228,1,228,images/flickr_cat_000261.jpg,images/flickr_cat_000538.jpg,Eddy2,001,2021-08-23_11h38.16.131,Cat face experiment_0-249,2021.1.4,Win32,144.0092166
,,,,,,p,1.216,0,229,229,229,1,229,images/flickr_cat_000262.jpg,images/flickr_cat_000539.jpg,Eddy2,001,2021-08-23_11h38.16.131,Cat face experiment_0-249,2021.1.4,Win32,144.0092166
,,,,,,q,0.9837,0,230,230,230,1,230,images/flickr_cat_000263.jpg,images/flickr_cat_000540.jpg,Eddy2,001,2021-08-23_11h38.16.131,Cat face experiment_0-249,2021.1.4,Win32,144.0092166
,,,,,,q,1.2721,0,231,231,231,1,231,images/flickr_cat_000264.jpg,images/flickr_cat_000541.jpg,Eddy2,001,2021-08-23_11h38.16.131,Cat face experiment_0-249,2021.1.4,Win32,144.0092166
,,,,,,p,2.1372,0,232,232,232,1,232,images/flickr_cat_000266.jpg,images/flickr_cat_000542.jpg,Eddy2,001,2021-08-23_11h38.16.131,Cat face experiment_0-249,2021.1.4,Win32,144.0092166
,,,,,,p,1.0501,0,233,233,233,1,233,images/flickr_cat_000267.jpg,images/flickr_cat_000543.jpg,Eddy2,001,2021-08-23_11h38.16.131,Cat face experiment_0-249,2021.1.4,Win32,144.0092166
,,,,,,p,0.8322,0,234,234,234,1,234,images/flickr_cat_000268.jpg,images/flickr_cat_000544.jpg,Eddy2,001,2021-08-23_11h38.16.131,Cat face experiment_0-249,2021.1.4,Win32,144.0092166
,,,,,,p,1.7925,0,235,235,235,1,235,images/flickr_cat_000269.jpg,images/flickr_cat_000545.jpg,Eddy2,001,2021-08-23_11h38.16.131,Cat face experiment_0-249,2021.1.4,Win32,144.0092166
,,,,,,q,1.4579,0,236,236,236,1,236,images/flickr_cat_000270.jpg,images/flickr_cat_000546.jpg,Eddy2,001,2021-08-23_11h38.16.131,Cat face experiment_0-249,2021.1.4,Win32,144.0092166
,,,,,,p,1.1545,0,237,237,237,1,237,images/flickr_cat_000271.jpg,images/flickr_cat_000547.jpg,Eddy2,001,2021-08-23_11h38.16.131,Cat face experiment_0-249,2021.1.4,Win32,144.0092166
,,,,,,p,1.2038,0,238,238,238,1,238,images/flickr_cat_000272.jpg,images/flickr_cat_000548.jpg,Eddy2,001,2021-08-23_11h38.16.131,Cat face experiment_0-249,2021.1.4,Win32,144.0092166
,,,,,,q,1.116,0,239,239,239,1,239,images/flickr_cat_000273.jpg,images/flickr_cat_000549.jpg,Eddy2,001,2021-08-23_11h38.16.131,Cat face experiment_0-249,2021.1.4,Win32,144.0092166
,,,,,,p,0.8107,0,240,240,240,1,240,images/flickr_cat_000274.jpg,images/flickr_cat_000550.jpg,Eddy2,001,2021-08-23_11h38.16.131,Cat face experiment_0-249,2021.1.4,Win32,144.0092166
,,,,,,p,1.374,0,241,241,241,1,241,images/flickr_cat_000275.jpg,images/flickr_cat_000551.jpg,Eddy2,001,2021-08-23_11h38.16.131,Cat face experiment_0-249,2021.1.4,Win32,144.0092166
,,,,,,p,0.9773,0,242,242,242,1,242,images/flickr_cat_000276.jpg,images/flickr_cat_000552.jpg,Eddy2,001,2021-08-23_11h38.16.131,Cat face experiment_0-249,2021.1.4,Win32,144.0092166
,,,,,,p,0.9598,0,243,243,243,1,243,images/flickr_cat_000277.jpg,images/flickr_cat_000553.jpg,Eddy2,001,2021-08-23_11h38.16.131,Cat face experiment_0-249,2021.1.4,Win32,144.0092166
,,,,,,p,2.139,0,244,244,244,1,244,images/flickr_cat_000278.jpg,images/flickr_cat_000555.jpg,Eddy2,001,2021-08-23_11h38.16.131,Cat face experiment_0-249,2021.1.4,Win32,144.0092166
,,,,,,p,0.9307,0,245,245,245,1,245,images/flickr_cat_000279.jpg,images/flickr_cat_000556.jpg,Eddy2,001,2021-08-23_11h38.16.131,Cat face experiment_0-249,2021.1.4,Win32,144.0092166
,,,,,,q,1.3062,0,246,246,246,1,246,images/flickr_cat_000280.jpg,images/flickr_cat_000558.jpg,Eddy2,001,2021-08-23_11h38.16.131,Cat face experiment_0-249,2021.1.4,Win32,144.0092166
,,,,,,p,1.0608,0,247,247,247,1,247,images/flickr_cat_000281.jpg,images/flickr_cat_000559.jpg,Eddy2,001,2021-08-23_11h38.16.131,Cat face experiment_0-249,2021.1.4,Win32,144.0092166
,,,,,,p,1.0706,0,248,248,248,1,248,images/flickr_cat_000282.jpg,images/flickr_cat_000561.jpg,Eddy2,001,2021-08-23_11h38.16.131,Cat face experiment_0-249,2021.1.4,Win32,144.0092166
,,,,,,q,2.317,0,249,249,249,1,249,images/flickr_cat_000284.jpg,images/flickr_cat_000562.jpg,Eddy2,001,2021-08-23_11h38.16.131,Cat face experiment_0-249,2021.1.4,Win32,144.0092166
