key_resp.keys,key_resp.rt,key_resp_2.keys,key_resp_2.rt,key_resp_3.keys,key_resp_3.rt,key_resp_4.keys,key_resp_4.rt,trials.thisRepN,trials.thisTrialN,trials.thisN,trials.thisIndex,trials.ran,trail_nums,img1,img2,participant,session,date,expName,psychopyVersion,OS,frameRate
space,1.142,space,0.4009,space,0.6161,p,2.0758,0,0,0,0,1,0,images/pixabay_cat_000858.jpg,images/pixabay_cat_001134.jpg,Eddy,001,2021-08-27_13h26.15.905,Cat face experiment_750-999,2021.1.4,Win32,144.4251878
,,,,,,p,2.7,0,1,1,1,1,1,images/pixabay_cat_000859.jpg,images/pixabay_cat_001135.jpg,Eddy,001,2021-08-27_13h26.15.905,Cat face experiment_750-999,2021.1.4,Win32,144.4251878
,,,,,,p,2.0598,0,2,2,2,1,2,images/pixabay_cat_000860.jpg,images/pixabay_cat_001136.jpg,Eddy,001,2021-08-27_13h26.15.905,Cat face experiment_750-999,2021.1.4,Win32,144.4251878
,,,,,,q,1.5745,0,3,3,3,1,3,images/pixabay_cat_000862.jpg,images/pixabay_cat_001137.jpg,Eddy,001,2021-08-27_13h26.15.905,Cat face experiment_750-999,2021.1.4,Win32,144.4251878
,,,,,,p,1.1438,0,4,4,4,1,4,images/pixabay_cat_000863.jpg,images/pixabay_cat_001138.jpg,Eddy,001,2021-08-27_13h26.15.905,Cat face experiment_750-999,2021.1.4,Win32,144.4251878
,,,,,,p,1.1023,0,5,5,5,1,5,images/pixabay_cat_000864.jpg,images/pixabay_cat_001139.jpg,Eddy,001,2021-08-27_13h26.15.905,Cat face experiment_750-999,2021.1.4,Win32,144.4251878
,,,,,,p,3.4916,0,6,6,6,1,6,images/pixabay_cat_000865.jpg,images/pixabay_cat_001140.jpg,Eddy,001,2021-08-27_13h26.15.905,Cat face experiment_750-999,2021.1.4,Win32,144.4251878
,,,,,,p,2.7521,0,7,7,7,1,7,images/pixabay_cat_000866.jpg,images/pixabay_cat_001141.jpg,Eddy,001,2021-08-27_13h26.15.905,Cat face experiment_750-999,2021.1.4,Win32,144.4251878
,,,,,,p,0.8042,0,8,8,8,1,8,images/pixabay_cat_000868.jpg,images/pixabay_cat_001142.jpg,Eddy,001,2021-08-27_13h26.15.905,Cat face experiment_750-999,2021.1.4,Win32,144.4251878
,,,,,,q,0.9781,0,9,9,9,1,9,images/pixabay_cat_000869.jpg,images/pixabay_cat_001145.jpg,Eddy,001,2021-08-27_13h26.15.905,Cat face experiment_750-999,2021.1.4,Win32,144.4251878
,,,,,,q,1.0407,0,10,10,10,1,10,images/pixabay_cat_000870.jpg,images/pixabay_cat_001146.jpg,Eddy,001,2021-08-27_13h26.15.905,Cat face experiment_750-999,2021.1.4,Win32,144.4251878
,,,,,,p,1.2866,0,11,11,11,1,11,images/pixabay_cat_000871.jpg,images/pixabay_cat_001147.jpg,Eddy,001,2021-08-27_13h26.15.905,Cat face experiment_750-999,2021.1.4,Win32,144.4251878
,,,,,,q,1.9882,0,12,12,12,1,12,images/pixabay_cat_000872.jpg,images/pixabay_cat_001148.jpg,Eddy,001,2021-08-27_13h26.15.905,Cat face experiment_750-999,2021.1.4,Win32,144.4251878
,,,,,,q,0.8453,0,13,13,13,1,13,images/pixabay_cat_000873.jpg,images/pixabay_cat_001149.jpg,Eddy,001,2021-08-27_13h26.15.905,Cat face experiment_750-999,2021.1.4,Win32,144.4251878
,,,,,,q,0.8483,0,14,14,14,1,14,images/pixabay_cat_000874.jpg,images/pixabay_cat_001150.jpg,Eddy,001,2021-08-27_13h26.15.905,Cat face experiment_750-999,2021.1.4,Win32,144.4251878
,,,,,,q,1.5407,0,15,15,15,1,15,images/pixabay_cat_000875.jpg,images/pixabay_cat_001151.jpg,Eddy,001,2021-08-27_13h26.15.905,Cat face experiment_750-999,2021.1.4,Win32,144.4251878
,,,,,,p,2.0628,0,16,16,16,1,16,images/pixabay_cat_000877.jpg,images/pixabay_cat_001152.jpg,Eddy,001,2021-08-27_13h26.15.905,Cat face experiment_750-999,2021.1.4,Win32,144.4251878
,,,,,,p,1.426,0,17,17,17,1,17,images/pixabay_cat_000878.jpg,images/pixabay_cat_001153.jpg,Eddy,001,2021-08-27_13h26.15.905,Cat face experiment_750-999,2021.1.4,Win32,144.4251878
,,,,,,p,1.349,0,18,18,18,1,18,images/pixabay_cat_000879.jpg,images/pixabay_cat_001154.jpg,Eddy,001,2021-08-27_13h26.15.905,Cat face experiment_750-999,2021.1.4,Win32,144.4251878
,,,,,,q,1.035,0,19,19,19,1,19,images/pixabay_cat_000880.jpg,images/pixabay_cat_001155.jpg,Eddy,001,2021-08-27_13h26.15.905,Cat face experiment_750-999,2021.1.4,Win32,144.4251878
,,,,,,p,0.9018,0,20,20,20,1,20,images/pixabay_cat_000881.jpg,images/pixabay_cat_001156.jpg,Eddy,001,2021-08-27_13h26.15.905,Cat face experiment_750-999,2021.1.4,Win32,144.4251878
,,,,,,q,1.1543,0,21,21,21,1,21,images/pixabay_cat_000882.jpg,images/pixabay_cat_001157.jpg,Eddy,001,2021-08-27_13h26.15.905,Cat face experiment_750-999,2021.1.4,Win32,144.4251878
,,,,,,q,0.9616,0,22,22,22,1,22,images/pixabay_cat_000883.jpg,images/pixabay_cat_001158.jpg,Eddy,001,2021-08-27_13h26.15.905,Cat face experiment_750-999,2021.1.4,Win32,144.4251878
,,,,,,p,0.8047,0,23,23,23,1,23,images/pixabay_cat_000884.jpg,images/pixabay_cat_001159.jpg,Eddy,001,2021-08-27_13h26.15.905,Cat face experiment_750-999,2021.1.4,Win32,144.4251878
,,,,,,p,1.9294,0,24,24,24,1,24,images/pixabay_cat_000885.jpg,images/pixabay_cat_001160.jpg,Eddy,001,2021-08-27_13h26.15.905,Cat face experiment_750-999,2021.1.4,Win32,144.4251878
,,,,,,p,1.2711,0,25,25,25,1,25,images/pixabay_cat_000886.jpg,images/pixabay_cat_001161.jpg,Eddy,001,2021-08-27_13h26.15.905,Cat face experiment_750-999,2021.1.4,Win32,144.4251878
,,,,,,q,1.0687,0,26,26,26,1,26,images/pixabay_cat_000887.jpg,images/pixabay_cat_001162.jpg,Eddy,001,2021-08-27_13h26.15.905,Cat face experiment_750-999,2021.1.4,Win32,144.4251878
,,,,,,q,1.3105,0,27,27,27,1,27,images/pixabay_cat_000888.jpg,images/pixabay_cat_001163.jpg,Eddy,001,2021-08-27_13h26.15.905,Cat face experiment_750-999,2021.1.4,Win32,144.4251878
,,,,,,p,0.8828,0,28,28,28,1,28,images/pixabay_cat_000891.jpg,images/pixabay_cat_001164.jpg,Eddy,001,2021-08-27_13h26.15.905,Cat face experiment_750-999,2021.1.4,Win32,144.4251878
,,,,,,q,0.7381,0,29,29,29,1,29,images/pixabay_cat_000892.jpg,images/pixabay_cat_001165.jpg,Eddy,001,2021-08-27_13h26.15.905,Cat face experiment_750-999,2021.1.4,Win32,144.4251878
,,,,,,p,0.9911,0,30,30,30,1,30,images/pixabay_cat_000894.jpg,images/pixabay_cat_001166.jpg,Eddy,001,2021-08-27_13h26.15.905,Cat face experiment_750-999,2021.1.4,Win32,144.4251878
,,,,,,q,0.8802,0,31,31,31,1,31,images/pixabay_cat_000895.jpg,images/pixabay_cat_001167.jpg,Eddy,001,2021-08-27_13h26.15.905,Cat face experiment_750-999,2021.1.4,Win32,144.4251878
,,,,,,q,1.77,0,32,32,32,1,32,images/pixabay_cat_000896.jpg,images/pixabay_cat_001168.jpg,Eddy,001,2021-08-27_13h26.15.905,Cat face experiment_750-999,2021.1.4,Win32,144.4251878
,,,,,,p,0.8811,0,33,33,33,1,33,images/pixabay_cat_000897.jpg,images/pixabay_cat_001169.jpg,Eddy,001,2021-08-27_13h26.15.905,Cat face experiment_750-999,2021.1.4,Win32,144.4251878
,,,,,,p,0.8598,0,34,34,34,1,34,images/pixabay_cat_000898.jpg,images/pixabay_cat_001170.jpg,Eddy,001,2021-08-27_13h26.15.905,Cat face experiment_750-999,2021.1.4,Win32,144.4251878
,,,,,,q,1.1301,0,35,35,35,1,35,images/pixabay_cat_000899.jpg,images/pixabay_cat_001171.jpg,Eddy,001,2021-08-27_13h26.15.905,Cat face experiment_750-999,2021.1.4,Win32,144.4251878
,,,,,,p,1.1616,0,36,36,36,1,36,images/pixabay_cat_000900.jpg,images/pixabay_cat_001172.jpg,Eddy,001,2021-08-27_13h26.15.905,Cat face experiment_750-999,2021.1.4,Win32,144.4251878
,,,,,,p,0.9848,0,37,37,37,1,37,images/pixabay_cat_000902.jpg,images/pixabay_cat_001173.jpg,Eddy,001,2021-08-27_13h26.15.905,Cat face experiment_750-999,2021.1.4,Win32,144.4251878
,,,,,,p,1.0825,0,38,38,38,1,38,images/pixabay_cat_000903.jpg,images/pixabay_cat_001174.jpg,Eddy,001,2021-08-27_13h26.15.905,Cat face experiment_750-999,2021.1.4,Win32,144.4251878
,,,,,,q,1.0821,0,39,39,39,1,39,images/pixabay_cat_000904.jpg,images/pixabay_cat_001175.jpg,Eddy,001,2021-08-27_13h26.15.905,Cat face experiment_750-999,2021.1.4,Win32,144.4251878
,,,,,,p,1.3245,0,40,40,40,1,40,images/pixabay_cat_000905.jpg,images/pixabay_cat_001176.jpg,Eddy,001,2021-08-27_13h26.15.905,Cat face experiment_750-999,2021.1.4,Win32,144.4251878
,,,,,,p,1.1298,0,41,41,41,1,41,images/pixabay_cat_000906.jpg,images/pixabay_cat_001177.jpg,Eddy,001,2021-08-27_13h26.15.905,Cat face experiment_750-999,2021.1.4,Win32,144.4251878
,,,,,,q,1.0679,0,42,42,42,1,42,images/pixabay_cat_000907.jpg,images/pixabay_cat_001178.jpg,Eddy,001,2021-08-27_13h26.15.905,Cat face experiment_750-999,2021.1.4,Win32,144.4251878
,,,,,,p,0.9458,0,43,43,43,1,43,images/pixabay_cat_000908.jpg,images/pixabay_cat_001180.jpg,Eddy,001,2021-08-27_13h26.15.905,Cat face experiment_750-999,2021.1.4,Win32,144.4251878
,,,,,,p,1.7634,0,44,44,44,1,44,images/pixabay_cat_000909.jpg,images/pixabay_cat_001181.jpg,Eddy,001,2021-08-27_13h26.15.905,Cat face experiment_750-999,2021.1.4,Win32,144.4251878
,,,,,,p,1.5963,0,45,45,45,1,45,images/pixabay_cat_000910.jpg,images/pixabay_cat_001182.jpg,Eddy,001,2021-08-27_13h26.15.905,Cat face experiment_750-999,2021.1.4,Win32,144.4251878
,,,,,,p,1.1366,0,46,46,46,1,46,images/pixabay_cat_000911.jpg,images/pixabay_cat_001183.jpg,Eddy,001,2021-08-27_13h26.15.905,Cat face experiment_750-999,2021.1.4,Win32,144.4251878
,,,,,,p,2.2625,0,47,47,47,1,47,images/pixabay_cat_000912.jpg,images/pixabay_cat_001184.jpg,Eddy,001,2021-08-27_13h26.15.905,Cat face experiment_750-999,2021.1.4,Win32,144.4251878
,,,,,,p,1.0064,0,48,48,48,1,48,images/pixabay_cat_000913.jpg,images/pixabay_cat_001185.jpg,Eddy,001,2021-08-27_13h26.15.905,Cat face experiment_750-999,2021.1.4,Win32,144.4251878
,,,,,,p,1.4192,0,49,49,49,1,49,images/pixabay_cat_000914.jpg,images/pixabay_cat_001186.jpg,Eddy,001,2021-08-27_13h26.15.905,Cat face experiment_750-999,2021.1.4,Win32,144.4251878
,,,,,,q,1.0366,0,50,50,50,1,50,images/pixabay_cat_000915.jpg,images/pixabay_cat_001187.jpg,Eddy,001,2021-08-27_13h26.15.905,Cat face experiment_750-999,2021.1.4,Win32,144.4251878
,,,,,,q,0.7561,0,51,51,51,1,51,images/pixabay_cat_000916.jpg,images/pixabay_cat_001188.jpg,Eddy,001,2021-08-27_13h26.15.905,Cat face experiment_750-999,2021.1.4,Win32,144.4251878
,,,,,,p,0.9373,0,52,52,52,1,52,images/pixabay_cat_000917.jpg,images/pixabay_cat_001189.jpg,Eddy,001,2021-08-27_13h26.15.905,Cat face experiment_750-999,2021.1.4,Win32,144.4251878
,,,,,,p,0.9636,0,53,53,53,1,53,images/pixabay_cat_000918.jpg,images/pixabay_cat_001190.jpg,Eddy,001,2021-08-27_13h26.15.905,Cat face experiment_750-999,2021.1.4,Win32,144.4251878
,,,,,,p,1.6948,0,54,54,54,1,54,images/pixabay_cat_000919.jpg,images/pixabay_cat_001191.jpg,Eddy,001,2021-08-27_13h26.15.905,Cat face experiment_750-999,2021.1.4,Win32,144.4251878
,,,,,,p,0.8673,0,55,55,55,1,55,images/pixabay_cat_000920.jpg,images/pixabay_cat_001192.jpg,Eddy,001,2021-08-27_13h26.15.905,Cat face experiment_750-999,2021.1.4,Win32,144.4251878
,,,,,,q,1.9145,0,56,56,56,1,56,images/pixabay_cat_000921.jpg,images/pixabay_cat_001193.jpg,Eddy,001,2021-08-27_13h26.15.905,Cat face experiment_750-999,2021.1.4,Win32,144.4251878
,,,,,,p,0.874,0,57,57,57,1,57,images/pixabay_cat_000922.jpg,images/pixabay_cat_001194.jpg,Eddy,001,2021-08-27_13h26.15.905,Cat face experiment_750-999,2021.1.4,Win32,144.4251878
,,,,,,p,3.4525,0,58,58,58,1,58,images/pixabay_cat_000923.jpg,images/pixabay_cat_001197.jpg,Eddy,001,2021-08-27_13h26.15.905,Cat face experiment_750-999,2021.1.4,Win32,144.4251878
,,,,,,q,0.923,0,59,59,59,1,59,images/pixabay_cat_000924.jpg,images/pixabay_cat_001198.jpg,Eddy,001,2021-08-27_13h26.15.905,Cat face experiment_750-999,2021.1.4,Win32,144.4251878
,,,,,,q,1.2487,0,60,60,60,1,60,images/pixabay_cat_000925.jpg,images/pixabay_cat_001199.jpg,Eddy,001,2021-08-27_13h26.15.905,Cat face experiment_750-999,2021.1.4,Win32,144.4251878
,,,,,,q,1.105,0,61,61,61,1,61,images/pixabay_cat_000926.jpg,images/pixabay_cat_001200.jpg,Eddy,001,2021-08-27_13h26.15.905,Cat face experiment_750-999,2021.1.4,Win32,144.4251878
,,,,,,p,0.8676,0,62,62,62,1,62,images/pixabay_cat_000927.jpg,images/pixabay_cat_001201.jpg,Eddy,001,2021-08-27_13h26.15.905,Cat face experiment_750-999,2021.1.4,Win32,144.4251878
,,,,,,q,0.9149,0,63,63,63,1,63,images/pixabay_cat_000928.jpg,images/pixabay_cat_001202.jpg,Eddy,001,2021-08-27_13h26.15.905,Cat face experiment_750-999,2021.1.4,Win32,144.4251878
,,,,,,q,1.7144,0,64,64,64,1,64,images/pixabay_cat_000930.jpg,images/pixabay_cat_001203.jpg,Eddy,001,2021-08-27_13h26.15.905,Cat face experiment_750-999,2021.1.4,Win32,144.4251878
,,,,,,q,1.5008,0,65,65,65,1,65,images/pixabay_cat_000931.jpg,images/pixabay_cat_001204.jpg,Eddy,001,2021-08-27_13h26.15.905,Cat face experiment_750-999,2021.1.4,Win32,144.4251878
,,,,,,p,3.1091,0,66,66,66,1,66,images/pixabay_cat_000932.jpg,images/pixabay_cat_001206.jpg,Eddy,001,2021-08-27_13h26.15.905,Cat face experiment_750-999,2021.1.4,Win32,144.4251878
,,,,,,p,1.2548,0,67,67,67,1,67,images/pixabay_cat_000933.jpg,images/pixabay_cat_001207.jpg,Eddy,001,2021-08-27_13h26.15.905,Cat face experiment_750-999,2021.1.4,Win32,144.4251878
,,,,,,q,1.6092,0,68,68,68,1,68,images/pixabay_cat_000934.jpg,images/pixabay_cat_001208.jpg,Eddy,001,2021-08-27_13h26.15.905,Cat face experiment_750-999,2021.1.4,Win32,144.4251878
,,,,,,q,1.0324,0,69,69,69,1,69,images/pixabay_cat_000936.jpg,images/pixabay_cat_001209.jpg,Eddy,001,2021-08-27_13h26.15.905,Cat face experiment_750-999,2021.1.4,Win32,144.4251878
,,,,,,q,1.4289,0,70,70,70,1,70,images/pixabay_cat_000937.jpg,images/pixabay_cat_001210.jpg,Eddy,001,2021-08-27_13h26.15.905,Cat face experiment_750-999,2021.1.4,Win32,144.4251878
,,,,,,p,0.9219,0,71,71,71,1,71,images/pixabay_cat_000938.jpg,images/pixabay_cat_001211.jpg,Eddy,001,2021-08-27_13h26.15.905,Cat face experiment_750-999,2021.1.4,Win32,144.4251878
,,,,,,p,1.1928,0,72,72,72,1,72,images/pixabay_cat_000939.jpg,images/pixabay_cat_001213.jpg,Eddy,001,2021-08-27_13h26.15.905,Cat face experiment_750-999,2021.1.4,Win32,144.4251878
,,,,,,p,1.0465,0,73,73,73,1,73,images/pixabay_cat_000940.jpg,images/pixabay_cat_001214.jpg,Eddy,001,2021-08-27_13h26.15.905,Cat face experiment_750-999,2021.1.4,Win32,144.4251878
,,,,,,p,0.9601,0,74,74,74,1,74,images/pixabay_cat_000941.jpg,images/pixabay_cat_001215.jpg,Eddy,001,2021-08-27_13h26.15.905,Cat face experiment_750-999,2021.1.4,Win32,144.4251878
,,,,,,q,0.7835,0,75,75,75,1,75,images/pixabay_cat_000942.jpg,images/pixabay_cat_001216.jpg,Eddy,001,2021-08-27_13h26.15.905,Cat face experiment_750-999,2021.1.4,Win32,144.4251878
,,,,,,p,0.7893,0,76,76,76,1,76,images/pixabay_cat_000943.jpg,images/pixabay_cat_001217.jpg,Eddy,001,2021-08-27_13h26.15.905,Cat face experiment_750-999,2021.1.4,Win32,144.4251878
,,,,,,q,0.8921,0,77,77,77,1,77,images/pixabay_cat_000944.jpg,images/pixabay_cat_001218.jpg,Eddy,001,2021-08-27_13h26.15.905,Cat face experiment_750-999,2021.1.4,Win32,144.4251878
,,,,,,p,0.8252,0,78,78,78,1,78,images/pixabay_cat_000945.jpg,images/pixabay_cat_001219.jpg,Eddy,001,2021-08-27_13h26.15.905,Cat face experiment_750-999,2021.1.4,Win32,144.4251878
,,,,,,q,0.8662,0,79,79,79,1,79,images/pixabay_cat_000946.jpg,images/pixabay_cat_001220.jpg,Eddy,001,2021-08-27_13h26.15.905,Cat face experiment_750-999,2021.1.4,Win32,144.4251878
,,,,,,q,0.9227,0,80,80,80,1,80,images/pixabay_cat_000947.jpg,images/pixabay_cat_001221.jpg,Eddy,001,2021-08-27_13h26.15.905,Cat face experiment_750-999,2021.1.4,Win32,144.4251878
,,,,,,p,1.7489,0,81,81,81,1,81,images/pixabay_cat_000948.jpg,images/pixabay_cat_001222.jpg,Eddy,001,2021-08-27_13h26.15.905,Cat face experiment_750-999,2021.1.4,Win32,144.4251878
,,,,,,q,1.4514,0,82,82,82,1,82,images/pixabay_cat_000949.jpg,images/pixabay_cat_001223.jpg,Eddy,001,2021-08-27_13h26.15.905,Cat face experiment_750-999,2021.1.4,Win32,144.4251878
,,,,,,q,1.8404,0,83,83,83,1,83,images/pixabay_cat_000950.jpg,images/pixabay_cat_001224.jpg,Eddy,001,2021-08-27_13h26.15.905,Cat face experiment_750-999,2021.1.4,Win32,144.4251878
,,,,,,q,1.1232,0,84,84,84,1,84,images/pixabay_cat_000951.jpg,images/pixabay_cat_001225.jpg,Eddy,001,2021-08-27_13h26.15.905,Cat face experiment_750-999,2021.1.4,Win32,144.4251878
,,,,,,q,1.7608,0,85,85,85,1,85,images/pixabay_cat_000952.jpg,images/pixabay_cat_001226.jpg,Eddy,001,2021-08-27_13h26.15.905,Cat face experiment_750-999,2021.1.4,Win32,144.4251878
,,,,,,q,0.9847,0,86,86,86,1,86,images/pixabay_cat_000953.jpg,images/pixabay_cat_001227.jpg,Eddy,001,2021-08-27_13h26.15.905,Cat face experiment_750-999,2021.1.4,Win32,144.4251878
,,,,,,q,1.0198,0,87,87,87,1,87,images/pixabay_cat_000954.jpg,images/pixabay_cat_001228.jpg,Eddy,001,2021-08-27_13h26.15.905,Cat face experiment_750-999,2021.1.4,Win32,144.4251878
,,,,,,q,1.345,0,88,88,88,1,88,images/pixabay_cat_000955.jpg,images/pixabay_cat_001229.jpg,Eddy,001,2021-08-27_13h26.15.905,Cat face experiment_750-999,2021.1.4,Win32,144.4251878
,,,,,,q,1.2223,0,89,89,89,1,89,images/pixabay_cat_000956.jpg,images/pixabay_cat_001230.jpg,Eddy,001,2021-08-27_13h26.15.905,Cat face experiment_750-999,2021.1.4,Win32,144.4251878
,,,,,,q,1.2826,0,90,90,90,1,90,images/pixabay_cat_000957.jpg,images/pixabay_cat_001231.jpg,Eddy,001,2021-08-27_13h26.15.905,Cat face experiment_750-999,2021.1.4,Win32,144.4251878
,,,,,,p,1.4316,0,91,91,91,1,91,images/pixabay_cat_000958.jpg,images/pixabay_cat_001232.jpg,Eddy,001,2021-08-27_13h26.15.905,Cat face experiment_750-999,2021.1.4,Win32,144.4251878
,,,,,,q,0.7338,0,92,92,92,1,92,images/pixabay_cat_000959.jpg,images/pixabay_cat_001233.jpg,Eddy,001,2021-08-27_13h26.15.905,Cat face experiment_750-999,2021.1.4,Win32,144.4251878
,,,,,,p,0.8058,0,93,93,93,1,93,images/pixabay_cat_000960.jpg,images/pixabay_cat_001234.jpg,Eddy,001,2021-08-27_13h26.15.905,Cat face experiment_750-999,2021.1.4,Win32,144.4251878
,,,,,,p,1.381,0,94,94,94,1,94,images/pixabay_cat_000961.jpg,images/pixabay_cat_001235.jpg,Eddy,001,2021-08-27_13h26.15.905,Cat face experiment_750-999,2021.1.4,Win32,144.4251878
,,,,,,q,0.8814,0,95,95,95,1,95,images/pixabay_cat_000962.jpg,images/pixabay_cat_001236.jpg,Eddy,001,2021-08-27_13h26.15.905,Cat face experiment_750-999,2021.1.4,Win32,144.4251878
,,,,,,p,1.0218,0,96,96,96,1,96,images/pixabay_cat_000963.jpg,images/pixabay_cat_001237.jpg,Eddy,001,2021-08-27_13h26.15.905,Cat face experiment_750-999,2021.1.4,Win32,144.4251878
,,,,,,q,0.9004,0,97,97,97,1,97,images/pixabay_cat_000964.jpg,images/pixabay_cat_001238.jpg,Eddy,001,2021-08-27_13h26.15.905,Cat face experiment_750-999,2021.1.4,Win32,144.4251878
,,,,,,p,0.7708,0,98,98,98,1,98,images/pixabay_cat_000965.jpg,images/pixabay_cat_001239.jpg,Eddy,001,2021-08-27_13h26.15.905,Cat face experiment_750-999,2021.1.4,Win32,144.4251878
,,,,,,p,1.3661,0,99,99,99,1,99,images/pixabay_cat_000966.jpg,images/pixabay_cat_001240.jpg,Eddy,001,2021-08-27_13h26.15.905,Cat face experiment_750-999,2021.1.4,Win32,144.4251878
,,,,,,p,0.792,0,100,100,100,1,100,images/pixabay_cat_000967.jpg,images/pixabay_cat_001241.jpg,Eddy,001,2021-08-27_13h26.15.905,Cat face experiment_750-999,2021.1.4,Win32,144.4251878
,,,,,,p,1.4662,0,101,101,101,1,101,images/pixabay_cat_000969.jpg,images/pixabay_cat_001242.jpg,Eddy,001,2021-08-27_13h26.15.905,Cat face experiment_750-999,2021.1.4,Win32,144.4251878
,,,,,,p,1.0127,0,102,102,102,1,102,images/pixabay_cat_000970.jpg,images/pixabay_cat_001243.jpg,Eddy,001,2021-08-27_13h26.15.905,Cat face experiment_750-999,2021.1.4,Win32,144.4251878
,,,,,,q,0.7357,0,103,103,103,1,103,images/pixabay_cat_000971.jpg,images/pixabay_cat_001244.jpg,Eddy,001,2021-08-27_13h26.15.905,Cat face experiment_750-999,2021.1.4,Win32,144.4251878
,,,,,,p,0.843,0,104,104,104,1,104,images/pixabay_cat_000972.jpg,images/pixabay_cat_001245.jpg,Eddy,001,2021-08-27_13h26.15.905,Cat face experiment_750-999,2021.1.4,Win32,144.4251878
,,,,,,p,0.8114,0,105,105,105,1,105,images/pixabay_cat_000973.jpg,images/pixabay_cat_001246.jpg,Eddy,001,2021-08-27_13h26.15.905,Cat face experiment_750-999,2021.1.4,Win32,144.4251878
,,,,,,p,0.825,0,106,106,106,1,106,images/pixabay_cat_000974.jpg,images/pixabay_cat_001247.jpg,Eddy,001,2021-08-27_13h26.15.905,Cat face experiment_750-999,2021.1.4,Win32,144.4251878
,,,,,,p,2.5049,0,107,107,107,1,107,images/pixabay_cat_000975.jpg,images/pixabay_cat_001248.jpg,Eddy,001,2021-08-27_13h26.15.905,Cat face experiment_750-999,2021.1.4,Win32,144.4251878
,,,,,,p,1.0749,0,108,108,108,1,108,images/pixabay_cat_000976.jpg,images/pixabay_cat_001249.jpg,Eddy,001,2021-08-27_13h26.15.905,Cat face experiment_750-999,2021.1.4,Win32,144.4251878
,,,,,,q,0.9091,0,109,109,109,1,109,images/pixabay_cat_000977.jpg,images/pixabay_cat_001250.jpg,Eddy,001,2021-08-27_13h26.15.905,Cat face experiment_750-999,2021.1.4,Win32,144.4251878
,,,,,,p,0.9145,0,110,110,110,1,110,images/pixabay_cat_000978.jpg,images/pixabay_cat_001251.jpg,Eddy,001,2021-08-27_13h26.15.905,Cat face experiment_750-999,2021.1.4,Win32,144.4251878
,,,,,,p,1.6714,0,111,111,111,1,111,images/pixabay_cat_000979.jpg,images/pixabay_cat_001252.jpg,Eddy,001,2021-08-27_13h26.15.905,Cat face experiment_750-999,2021.1.4,Win32,144.4251878
,,,,,,q,0.9222,0,112,112,112,1,112,images/pixabay_cat_000981.jpg,images/pixabay_cat_001253.jpg,Eddy,001,2021-08-27_13h26.15.905,Cat face experiment_750-999,2021.1.4,Win32,144.4251878
,,,,,,q,1.3907,0,113,113,113,1,113,images/pixabay_cat_000982.jpg,images/pixabay_cat_001254.jpg,Eddy,001,2021-08-27_13h26.15.905,Cat face experiment_750-999,2021.1.4,Win32,144.4251878
,,,,,,q,1.3961,0,114,114,114,1,114,images/pixabay_cat_000983.jpg,images/pixabay_cat_001255.jpg,Eddy,001,2021-08-27_13h26.15.905,Cat face experiment_750-999,2021.1.4,Win32,144.4251878
,,,,,,q,1.0837,0,115,115,115,1,115,images/pixabay_cat_000984.jpg,images/pixabay_cat_001256.jpg,Eddy,001,2021-08-27_13h26.15.905,Cat face experiment_750-999,2021.1.4,Win32,144.4251878
,,,,,,p,1.406,0,116,116,116,1,116,images/pixabay_cat_000985.jpg,images/pixabay_cat_001257.jpg,Eddy,001,2021-08-27_13h26.15.905,Cat face experiment_750-999,2021.1.4,Win32,144.4251878
,,,,,,p,1.209,0,117,117,117,1,117,images/pixabay_cat_000986.jpg,images/pixabay_cat_001258.jpg,Eddy,001,2021-08-27_13h26.15.905,Cat face experiment_750-999,2021.1.4,Win32,144.4251878
,,,,,,p,1.227,0,118,118,118,1,118,images/pixabay_cat_000987.jpg,images/pixabay_cat_001259.jpg,Eddy,001,2021-08-27_13h26.15.905,Cat face experiment_750-999,2021.1.4,Win32,144.4251878
,,,,,,q,1.4565,0,119,119,119,1,119,images/pixabay_cat_000991.jpg,images/pixabay_cat_001260.jpg,Eddy,001,2021-08-27_13h26.15.905,Cat face experiment_750-999,2021.1.4,Win32,144.4251878
,,,,,,p,1.8396,0,120,120,120,1,120,images/pixabay_cat_000992.jpg,images/pixabay_cat_001261.jpg,Eddy,001,2021-08-27_13h26.15.905,Cat face experiment_750-999,2021.1.4,Win32,144.4251878
,,,,,,p,1.4254,0,121,121,121,1,121,images/pixabay_cat_000993.jpg,images/pixabay_cat_001262.jpg,Eddy,001,2021-08-27_13h26.15.905,Cat face experiment_750-999,2021.1.4,Win32,144.4251878
,,,,,,q,2.1958,0,122,122,122,1,122,images/pixabay_cat_000994.jpg,images/pixabay_cat_001263.jpg,Eddy,001,2021-08-27_13h26.15.905,Cat face experiment_750-999,2021.1.4,Win32,144.4251878
,,,,,,p,3.8108,0,123,123,123,1,123,images/pixabay_cat_000995.jpg,images/pixabay_cat_001264.jpg,Eddy,001,2021-08-27_13h26.15.905,Cat face experiment_750-999,2021.1.4,Win32,144.4251878
,,,,,,q,2.7812,0,124,124,124,1,124,images/pixabay_cat_000996.jpg,images/pixabay_cat_001265.jpg,Eddy,001,2021-08-27_13h26.15.905,Cat face experiment_750-999,2021.1.4,Win32,144.4251878
,,,,,,p,1.3704,0,125,125,125,1,125,images/pixabay_cat_000997.jpg,images/pixabay_cat_001266.jpg,Eddy,001,2021-08-27_13h26.15.905,Cat face experiment_750-999,2021.1.4,Win32,144.4251878
,,,,,,p,0.8116,0,126,126,126,1,126,images/pixabay_cat_000998.jpg,images/pixabay_cat_001267.jpg,Eddy,001,2021-08-27_13h26.15.905,Cat face experiment_750-999,2021.1.4,Win32,144.4251878
,,,,,,p,0.8407,0,127,127,127,1,127,images/pixabay_cat_000999.jpg,images/pixabay_cat_001268.jpg,Eddy,001,2021-08-27_13h26.15.905,Cat face experiment_750-999,2021.1.4,Win32,144.4251878
,,,,,,q,0.8745,0,128,128,128,1,128,images/pixabay_cat_001000.jpg,images/pixabay_cat_001270.jpg,Eddy,001,2021-08-27_13h26.15.905,Cat face experiment_750-999,2021.1.4,Win32,144.4251878
,,,,,,p,0.8743,0,129,129,129,1,129,images/pixabay_cat_001001.jpg,images/pixabay_cat_001271.jpg,Eddy,001,2021-08-27_13h26.15.905,Cat face experiment_750-999,2021.1.4,Win32,144.4251878
,,,,,,q,0.8975,0,130,130,130,1,130,images/pixabay_cat_001002.jpg,images/pixabay_cat_001273.jpg,Eddy,001,2021-08-27_13h26.15.905,Cat face experiment_750-999,2021.1.4,Win32,144.4251878
,,,,,,p,1.0359,0,131,131,131,1,131,images/pixabay_cat_001004.jpg,images/pixabay_cat_001274.jpg,Eddy,001,2021-08-27_13h26.15.905,Cat face experiment_750-999,2021.1.4,Win32,144.4251878
,,,,,,p,0.9633,0,132,132,132,1,132,images/pixabay_cat_001005.jpg,images/pixabay_cat_001275.jpg,Eddy,001,2021-08-27_13h26.15.905,Cat face experiment_750-999,2021.1.4,Win32,144.4251878
,,,,,,q,0.8555,0,133,133,133,1,133,images/pixabay_cat_001006.jpg,images/pixabay_cat_001276.jpg,Eddy,001,2021-08-27_13h26.15.905,Cat face experiment_750-999,2021.1.4,Win32,144.4251878
,,,,,,p,1.5343,0,134,134,134,1,134,images/pixabay_cat_001007.jpg,images/pixabay_cat_001277.jpg,Eddy,001,2021-08-27_13h26.15.905,Cat face experiment_750-999,2021.1.4,Win32,144.4251878
,,,,,,q,0.7911,0,135,135,135,1,135,images/pixabay_cat_001008.jpg,images/pixabay_cat_001278.jpg,Eddy,001,2021-08-27_13h26.15.905,Cat face experiment_750-999,2021.1.4,Win32,144.4251878
,,,,,,p,0.7451,0,136,136,136,1,136,images/pixabay_cat_001009.jpg,images/pixabay_cat_001279.jpg,Eddy,001,2021-08-27_13h26.15.905,Cat face experiment_750-999,2021.1.4,Win32,144.4251878
,,,,,,q,1.6299,0,137,137,137,1,137,images/pixabay_cat_001010.jpg,images/pixabay_cat_001280.jpg,Eddy,001,2021-08-27_13h26.15.905,Cat face experiment_750-999,2021.1.4,Win32,144.4251878
,,,,,,p,0.797,0,138,138,138,1,138,images/pixabay_cat_001011.jpg,images/pixabay_cat_001281.jpg,Eddy,001,2021-08-27_13h26.15.905,Cat face experiment_750-999,2021.1.4,Win32,144.4251878
,,,,,,q,0.8383,0,139,139,139,1,139,images/pixabay_cat_001012.jpg,images/pixabay_cat_001282.jpg,Eddy,001,2021-08-27_13h26.15.905,Cat face experiment_750-999,2021.1.4,Win32,144.4251878
,,,,,,p,0.8933,0,140,140,140,1,140,images/pixabay_cat_001013.jpg,images/pixabay_cat_001283.jpg,Eddy,001,2021-08-27_13h26.15.905,Cat face experiment_750-999,2021.1.4,Win32,144.4251878
,,,,,,q,0.9215,0,141,141,141,1,141,images/pixabay_cat_001014.jpg,images/pixabay_cat_001284.jpg,Eddy,001,2021-08-27_13h26.15.905,Cat face experiment_750-999,2021.1.4,Win32,144.4251878
,,,,,,p,0.8117,0,142,142,142,1,142,images/pixabay_cat_001015.jpg,images/pixabay_cat_001285.jpg,Eddy,001,2021-08-27_13h26.15.905,Cat face experiment_750-999,2021.1.4,Win32,144.4251878
,,,,,,p,1.5681,0,143,143,143,1,143,images/pixabay_cat_001016.jpg,images/pixabay_cat_001288.jpg,Eddy,001,2021-08-27_13h26.15.905,Cat face experiment_750-999,2021.1.4,Win32,144.4251878
,,,,,,p,1.1509,0,144,144,144,1,144,images/pixabay_cat_001017.jpg,images/pixabay_cat_001289.jpg,Eddy,001,2021-08-27_13h26.15.905,Cat face experiment_750-999,2021.1.4,Win32,144.4251878
,,,,,,p,0.8304,0,145,145,145,1,145,images/pixabay_cat_001019.jpg,images/pixabay_cat_001290.jpg,Eddy,001,2021-08-27_13h26.15.905,Cat face experiment_750-999,2021.1.4,Win32,144.4251878
,,,,,,q,0.8412,0,146,146,146,1,146,images/pixabay_cat_001020.jpg,images/pixabay_cat_001291.jpg,Eddy,001,2021-08-27_13h26.15.905,Cat face experiment_750-999,2021.1.4,Win32,144.4251878
,,,,,,p,0.7407,0,147,147,147,1,147,images/pixabay_cat_001021.jpg,images/pixabay_cat_001292.jpg,Eddy,001,2021-08-27_13h26.15.905,Cat face experiment_750-999,2021.1.4,Win32,144.4251878
,,,,,,q,0.8739,0,148,148,148,1,148,images/pixabay_cat_001022.jpg,images/pixabay_cat_001293.jpg,Eddy,001,2021-08-27_13h26.15.905,Cat face experiment_750-999,2021.1.4,Win32,144.4251878
,,,,,,p,0.9104,0,149,149,149,1,149,images/pixabay_cat_001023.jpg,images/pixabay_cat_001294.jpg,Eddy,001,2021-08-27_13h26.15.905,Cat face experiment_750-999,2021.1.4,Win32,144.4251878
,,,,,,q,1.2205,0,150,150,150,1,150,images/pixabay_cat_001024.jpg,images/pixabay_cat_001295.jpg,Eddy,001,2021-08-27_13h26.15.905,Cat face experiment_750-999,2021.1.4,Win32,144.4251878
,,,,,,p,1.2617,0,151,151,151,1,151,images/pixabay_cat_001025.jpg,images/pixabay_cat_001296.jpg,Eddy,001,2021-08-27_13h26.15.905,Cat face experiment_750-999,2021.1.4,Win32,144.4251878
,,,,,,q,0.8362,0,152,152,152,1,152,images/pixabay_cat_001026.jpg,images/pixabay_cat_001297.jpg,Eddy,001,2021-08-27_13h26.15.905,Cat face experiment_750-999,2021.1.4,Win32,144.4251878
,,,,,,q,1.2351,0,153,153,153,1,153,images/pixabay_cat_001027.jpg,images/pixabay_cat_001298.jpg,Eddy,001,2021-08-27_13h26.15.905,Cat face experiment_750-999,2021.1.4,Win32,144.4251878
,,,,,,p,0.8475,0,154,154,154,1,154,images/pixabay_cat_001028.jpg,images/pixabay_cat_001299.jpg,Eddy,001,2021-08-27_13h26.15.905,Cat face experiment_750-999,2021.1.4,Win32,144.4251878
,,,,,,p,0.8264,0,155,155,155,1,155,images/pixabay_cat_001030.jpg,images/pixabay_cat_001300.jpg,Eddy,001,2021-08-27_13h26.15.905,Cat face experiment_750-999,2021.1.4,Win32,144.4251878
,,,,,,p,0.8174,0,156,156,156,1,156,images/pixabay_cat_001031.jpg,images/pixabay_cat_001301.jpg,Eddy,001,2021-08-27_13h26.15.905,Cat face experiment_750-999,2021.1.4,Win32,144.4251878
,,,,,,q,0.8894,0,157,157,157,1,157,images/pixabay_cat_001032.jpg,images/pixabay_cat_001302.jpg,Eddy,001,2021-08-27_13h26.15.905,Cat face experiment_750-999,2021.1.4,Win32,144.4251878
,,,,,,q,1.8406,0,158,158,158,1,158,images/pixabay_cat_001033.jpg,images/pixabay_cat_001303.jpg,Eddy,001,2021-08-27_13h26.15.905,Cat face experiment_750-999,2021.1.4,Win32,144.4251878
,,,,,,p,1.2272,0,159,159,159,1,159,images/pixabay_cat_001034.jpg,images/pixabay_cat_001304.jpg,Eddy,001,2021-08-27_13h26.15.905,Cat face experiment_750-999,2021.1.4,Win32,144.4251878
,,,,,,q,0.978,0,160,160,160,1,160,images/pixabay_cat_001035.jpg,images/pixabay_cat_001305.jpg,Eddy,001,2021-08-27_13h26.15.905,Cat face experiment_750-999,2021.1.4,Win32,144.4251878
,,,,,,q,1.0228,0,161,161,161,1,161,images/pixabay_cat_001036.jpg,images/pixabay_cat_001306.jpg,Eddy,001,2021-08-27_13h26.15.905,Cat face experiment_750-999,2021.1.4,Win32,144.4251878
,,,,,,q,1.4594,0,162,162,162,1,162,images/pixabay_cat_001037.jpg,images/pixabay_cat_001307.jpg,Eddy,001,2021-08-27_13h26.15.905,Cat face experiment_750-999,2021.1.4,Win32,144.4251878
,,,,,,q,1.8207,0,163,163,163,1,163,images/pixabay_cat_001038.jpg,images/pixabay_cat_001308.jpg,Eddy,001,2021-08-27_13h26.15.905,Cat face experiment_750-999,2021.1.4,Win32,144.4251878
,,,,,,p,1.2585,0,164,164,164,1,164,images/pixabay_cat_001039.jpg,images/pixabay_cat_001310.jpg,Eddy,001,2021-08-27_13h26.15.905,Cat face experiment_750-999,2021.1.4,Win32,144.4251878
,,,,,,q,0.8354,0,165,165,165,1,165,images/pixabay_cat_001041.jpg,images/pixabay_cat_001311.jpg,Eddy,001,2021-08-27_13h26.15.905,Cat face experiment_750-999,2021.1.4,Win32,144.4251878
,,,,,,p,1.0278,0,166,166,166,1,166,images/pixabay_cat_001042.jpg,images/pixabay_cat_001312.jpg,Eddy,001,2021-08-27_13h26.15.905,Cat face experiment_750-999,2021.1.4,Win32,144.4251878
,,,,,,p,1.1312,0,167,167,167,1,167,images/pixabay_cat_001043.jpg,images/pixabay_cat_001313.jpg,Eddy,001,2021-08-27_13h26.15.905,Cat face experiment_750-999,2021.1.4,Win32,144.4251878
,,,,,,p,0.785,0,168,168,168,1,168,images/pixabay_cat_001044.jpg,images/pixabay_cat_001314.jpg,Eddy,001,2021-08-27_13h26.15.905,Cat face experiment_750-999,2021.1.4,Win32,144.4251878
,,,,,,q,1.1053,0,169,169,169,1,169,images/pixabay_cat_001045.jpg,images/pixabay_cat_001315.jpg,Eddy,001,2021-08-27_13h26.15.905,Cat face experiment_750-999,2021.1.4,Win32,144.4251878
,,,,,,q,1.2696,0,170,170,170,1,170,images/pixabay_cat_001046.jpg,images/pixabay_cat_001316.jpg,Eddy,001,2021-08-27_13h26.15.905,Cat face experiment_750-999,2021.1.4,Win32,144.4251878
,,,,,,p,1.0319,0,171,171,171,1,171,images/pixabay_cat_001047.jpg,images/pixabay_cat_001317.jpg,Eddy,001,2021-08-27_13h26.15.905,Cat face experiment_750-999,2021.1.4,Win32,144.4251878
,,,,,,q,0.8949,0,172,172,172,1,172,images/pixabay_cat_001048.jpg,images/pixabay_cat_001318.jpg,Eddy,001,2021-08-27_13h26.15.905,Cat face experiment_750-999,2021.1.4,Win32,144.4251878
,,,,,,p,0.9917,0,173,173,173,1,173,images/pixabay_cat_001049.jpg,images/pixabay_cat_001319.jpg,Eddy,001,2021-08-27_13h26.15.905,Cat face experiment_750-999,2021.1.4,Win32,144.4251878
,,,,,,p,1.9169,0,174,174,174,1,174,images/pixabay_cat_001050.jpg,images/pixabay_cat_001320.jpg,Eddy,001,2021-08-27_13h26.15.905,Cat face experiment_750-999,2021.1.4,Win32,144.4251878
,,,,,,p,0.6578,0,175,175,175,1,175,images/pixabay_cat_001051.jpg,images/pixabay_cat_001321.jpg,Eddy,001,2021-08-27_13h26.15.905,Cat face experiment_750-999,2021.1.4,Win32,144.4251878
,,,,,,q,1.1578,0,176,176,176,1,176,images/pixabay_cat_001052.jpg,images/pixabay_cat_001322.jpg,Eddy,001,2021-08-27_13h26.15.905,Cat face experiment_750-999,2021.1.4,Win32,144.4251878
,,,,,,p,0.8257,0,177,177,177,1,177,images/pixabay_cat_001053.jpg,images/pixabay_cat_001324.jpg,Eddy,001,2021-08-27_13h26.15.905,Cat face experiment_750-999,2021.1.4,Win32,144.4251878
,,,,,,p,1.3196,0,178,178,178,1,178,images/pixabay_cat_001054.jpg,images/pixabay_cat_001325.jpg,Eddy,001,2021-08-27_13h26.15.905,Cat face experiment_750-999,2021.1.4,Win32,144.4251878
,,,,,,p,1.1234,0,179,179,179,1,179,images/pixabay_cat_001056.jpg,images/pixabay_cat_001326.jpg,Eddy,001,2021-08-27_13h26.15.905,Cat face experiment_750-999,2021.1.4,Win32,144.4251878
,,,,,,q,1.0157,0,180,180,180,1,180,images/pixabay_cat_001057.jpg,images/pixabay_cat_001327.jpg,Eddy,001,2021-08-27_13h26.15.905,Cat face experiment_750-999,2021.1.4,Win32,144.4251878
,,,,,,q,0.964,0,181,181,181,1,181,images/pixabay_cat_001058.jpg,images/pixabay_cat_001328.jpg,Eddy,001,2021-08-27_13h26.15.905,Cat face experiment_750-999,2021.1.4,Win32,144.4251878
,,,,,,p,1.5849,0,182,182,182,1,182,images/pixabay_cat_001059.jpg,images/pixabay_cat_001329.jpg,Eddy,001,2021-08-27_13h26.15.905,Cat face experiment_750-999,2021.1.4,Win32,144.4251878
,,,,,,p,0.8756,0,183,183,183,1,183,images/pixabay_cat_001060.jpg,images/pixabay_cat_001330.jpg,Eddy,001,2021-08-27_13h26.15.905,Cat face experiment_750-999,2021.1.4,Win32,144.4251878
,,,,,,q,1.0121,0,184,184,184,1,184,images/pixabay_cat_001061.jpg,images/pixabay_cat_001331.jpg,Eddy,001,2021-08-27_13h26.15.905,Cat face experiment_750-999,2021.1.4,Win32,144.4251878
,,,,,,q,1.1436,0,185,185,185,1,185,images/pixabay_cat_001062.jpg,images/pixabay_cat_001332.jpg,Eddy,001,2021-08-27_13h26.15.905,Cat face experiment_750-999,2021.1.4,Win32,144.4251878
,,,,,,q,1.8833,0,186,186,186,1,186,images/pixabay_cat_001063.jpg,images/pixabay_cat_001333.jpg,Eddy,001,2021-08-27_13h26.15.905,Cat face experiment_750-999,2021.1.4,Win32,144.4251878
,,,,,,p,0.9221,0,187,187,187,1,187,images/pixabay_cat_001064.jpg,images/pixabay_cat_001334.jpg,Eddy,001,2021-08-27_13h26.15.905,Cat face experiment_750-999,2021.1.4,Win32,144.4251878
,,,,,,p,1.3328,0,188,188,188,1,188,images/pixabay_cat_001065.jpg,images/pixabay_cat_001335.jpg,Eddy,001,2021-08-27_13h26.15.905,Cat face experiment_750-999,2021.1.4,Win32,144.4251878
,,,,,,p,3.5146,0,189,189,189,1,189,images/pixabay_cat_001066.jpg,images/pixabay_cat_001336.jpg,Eddy,001,2021-08-27_13h26.15.905,Cat face experiment_750-999,2021.1.4,Win32,144.4251878
,,,,,,p,1.3793,0,190,190,190,1,190,images/pixabay_cat_001067.jpg,images/pixabay_cat_001337.jpg,Eddy,001,2021-08-27_13h26.15.905,Cat face experiment_750-999,2021.1.4,Win32,144.4251878
,,,,,,q,1.223,0,191,191,191,1,191,images/pixabay_cat_001068.jpg,images/pixabay_cat_001338.jpg,Eddy,001,2021-08-27_13h26.15.905,Cat face experiment_750-999,2021.1.4,Win32,144.4251878
,,,,,,p,1.4651,0,192,192,192,1,192,images/pixabay_cat_001069.jpg,images/pixabay_cat_001339.jpg,Eddy,001,2021-08-27_13h26.15.905,Cat face experiment_750-999,2021.1.4,Win32,144.4251878
,,,,,,p,1.3964,0,193,193,193,1,193,images/pixabay_cat_001070.jpg,images/pixabay_cat_001340.jpg,Eddy,001,2021-08-27_13h26.15.905,Cat face experiment_750-999,2021.1.4,Win32,144.4251878
,,,,,,p,0.8256,0,194,194,194,1,194,images/pixabay_cat_001071.jpg,images/pixabay_cat_001341.jpg,Eddy,001,2021-08-27_13h26.15.905,Cat face experiment_750-999,2021.1.4,Win32,144.4251878
,,,,,,q,1.0917,0,195,195,195,1,195,images/pixabay_cat_001072.jpg,images/pixabay_cat_001343.jpg,Eddy,001,2021-08-27_13h26.15.905,Cat face experiment_750-999,2021.1.4,Win32,144.4251878
,,,,,,q,0.8739,0,196,196,196,1,196,images/pixabay_cat_001073.jpg,images/pixabay_cat_001344.jpg,Eddy,001,2021-08-27_13h26.15.905,Cat face experiment_750-999,2021.1.4,Win32,144.4251878
,,,,,,p,1.0118,0,197,197,197,1,197,images/pixabay_cat_001074.jpg,images/pixabay_cat_001345.jpg,Eddy,001,2021-08-27_13h26.15.905,Cat face experiment_750-999,2021.1.4,Win32,144.4251878
,,,,,,p,1.6254,0,198,198,198,1,198,images/pixabay_cat_001075.jpg,images/pixabay_cat_001346.jpg,Eddy,001,2021-08-27_13h26.15.905,Cat face experiment_750-999,2021.1.4,Win32,144.4251878
,,,,,,q,1.0125,0,199,199,199,1,199,images/pixabay_cat_001076.jpg,images/pixabay_cat_001347.jpg,Eddy,001,2021-08-27_13h26.15.905,Cat face experiment_750-999,2021.1.4,Win32,144.4251878
,,,,,,p,1.1061,0,200,200,200,1,200,images/pixabay_cat_001077.jpg,images/pixabay_cat_001349.jpg,Eddy,001,2021-08-27_13h26.15.905,Cat face experiment_750-999,2021.1.4,Win32,144.4251878
,,,,,,q,7.4119,0,201,201,201,1,201,images/pixabay_cat_001078.jpg,images/pixabay_cat_001350.jpg,Eddy,001,2021-08-27_13h26.15.905,Cat face experiment_750-999,2021.1.4,Win32,144.4251878
,,,,,,q,0.9978,0,202,202,202,1,202,images/pixabay_cat_001079.jpg,images/pixabay_cat_001351.jpg,Eddy,001,2021-08-27_13h26.15.905,Cat face experiment_750-999,2021.1.4,Win32,144.4251878
,,,,,,p,1.6869,0,203,203,203,1,203,images/pixabay_cat_001082.jpg,images/pixabay_cat_001352.jpg,Eddy,001,2021-08-27_13h26.15.905,Cat face experiment_750-999,2021.1.4,Win32,144.4251878
,,,,,,q,1.001,0,204,204,204,1,204,images/pixabay_cat_001083.jpg,images/pixabay_cat_001353.jpg,Eddy,001,2021-08-27_13h26.15.905,Cat face experiment_750-999,2021.1.4,Win32,144.4251878
,,,,,,p,0.7859,0,205,205,205,1,205,images/pixabay_cat_001085.jpg,images/pixabay_cat_001354.jpg,Eddy,001,2021-08-27_13h26.15.905,Cat face experiment_750-999,2021.1.4,Win32,144.4251878
,,,,,,q,1.2689,0,206,206,206,1,206,images/pixabay_cat_001086.jpg,images/pixabay_cat_001355.jpg,Eddy,001,2021-08-27_13h26.15.905,Cat face experiment_750-999,2021.1.4,Win32,144.4251878
,,,,,,q,1.7358,0,207,207,207,1,207,images/pixabay_cat_001087.jpg,images/pixabay_cat_001356.jpg,Eddy,001,2021-08-27_13h26.15.905,Cat face experiment_750-999,2021.1.4,Win32,144.4251878
,,,,,,p,1.685,0,208,208,208,1,208,images/pixabay_cat_001088.jpg,images/pixabay_cat_001357.jpg,Eddy,001,2021-08-27_13h26.15.905,Cat face experiment_750-999,2021.1.4,Win32,144.4251878
,,,,,,p,2.9775,0,209,209,209,1,209,images/pixabay_cat_001089.jpg,images/pixabay_cat_001358.jpg,Eddy,001,2021-08-27_13h26.15.905,Cat face experiment_750-999,2021.1.4,Win32,144.4251878
,,,,,,q,2.4491,0,210,210,210,1,210,images/pixabay_cat_001090.jpg,images/pixabay_cat_001360.jpg,Eddy,001,2021-08-27_13h26.15.905,Cat face experiment_750-999,2021.1.4,Win32,144.4251878
,,,,,,p,0.8668,0,211,211,211,1,211,images/pixabay_cat_001091.jpg,images/pixabay_cat_001361.jpg,Eddy,001,2021-08-27_13h26.15.905,Cat face experiment_750-999,2021.1.4,Win32,144.4251878
,,,,,,p,1.107,0,212,212,212,1,212,images/pixabay_cat_001092.jpg,images/pixabay_cat_001362.jpg,Eddy,001,2021-08-27_13h26.15.905,Cat face experiment_750-999,2021.1.4,Win32,144.4251878
,,,,,,p,1.1376,0,213,213,213,1,213,images/pixabay_cat_001094.jpg,images/pixabay_cat_001363.jpg,Eddy,001,2021-08-27_13h26.15.905,Cat face experiment_750-999,2021.1.4,Win32,144.4251878
,,,,,,p,2.3773,0,214,214,214,1,214,images/pixabay_cat_001095.jpg,images/pixabay_cat_001364.jpg,Eddy,001,2021-08-27_13h26.15.905,Cat face experiment_750-999,2021.1.4,Win32,144.4251878
,,,,,,p,1.3398,0,215,215,215,1,215,images/pixabay_cat_001096.jpg,images/pixabay_cat_001366.jpg,Eddy,001,2021-08-27_13h26.15.905,Cat face experiment_750-999,2021.1.4,Win32,144.4251878
,,,,,,p,1.4908,0,216,216,216,1,216,images/pixabay_cat_001097.jpg,images/pixabay_cat_001368.jpg,Eddy,001,2021-08-27_13h26.15.905,Cat face experiment_750-999,2021.1.4,Win32,144.4251878
,,,,,,q,2.8376,0,217,217,217,1,217,images/pixabay_cat_001100.jpg,images/pixabay_cat_001369.jpg,Eddy,001,2021-08-27_13h26.15.905,Cat face experiment_750-999,2021.1.4,Win32,144.4251878
,,,,,,q,1.0892,0,218,218,218,1,218,images/pixabay_cat_001101.jpg,images/pixabay_cat_001370.jpg,Eddy,001,2021-08-27_13h26.15.905,Cat face experiment_750-999,2021.1.4,Win32,144.4251878
,,,,,,q,1.0002,0,219,219,219,1,219,images/pixabay_cat_001102.jpg,images/pixabay_cat_001372.jpg,Eddy,001,2021-08-27_13h26.15.905,Cat face experiment_750-999,2021.1.4,Win32,144.4251878
,,,,,,p,1.2574,0,220,220,220,1,220,images/pixabay_cat_001103.jpg,images/pixabay_cat_001373.jpg,Eddy,001,2021-08-27_13h26.15.905,Cat face experiment_750-999,2021.1.4,Win32,144.4251878
,,,,,,q,0.785,0,221,221,221,1,221,images/pixabay_cat_001104.jpg,images/pixabay_cat_001374.jpg,Eddy,001,2021-08-27_13h26.15.905,Cat face experiment_750-999,2021.1.4,Win32,144.4251878
,,,,,,p,0.9721,0,222,222,222,1,222,images/pixabay_cat_001106.jpg,images/pixabay_cat_001375.jpg,Eddy,001,2021-08-27_13h26.15.905,Cat face experiment_750-999,2021.1.4,Win32,144.4251878
,,,,,,q,2.0491,0,223,223,223,1,223,images/pixabay_cat_001107.jpg,images/pixabay_cat_001376.jpg,Eddy,001,2021-08-27_13h26.15.905,Cat face experiment_750-999,2021.1.4,Win32,144.4251878
,,,,,,q,1.3815,0,224,224,224,1,224,images/pixabay_cat_001108.jpg,images/pixabay_cat_001377.jpg,Eddy,001,2021-08-27_13h26.15.905,Cat face experiment_750-999,2021.1.4,Win32,144.4251878
,,,,,,p,3.7834,0,225,225,225,1,225,images/pixabay_cat_001109.jpg,images/pixabay_cat_001378.jpg,Eddy,001,2021-08-27_13h26.15.905,Cat face experiment_750-999,2021.1.4,Win32,144.4251878
,,,,,,p,0.8,0,226,226,226,1,226,images/pixabay_cat_001110.jpg,images/pixabay_cat_001379.jpg,Eddy,001,2021-08-27_13h26.15.905,Cat face experiment_750-999,2021.1.4,Win32,144.4251878
,,,,,,p,1.8122,0,227,227,227,1,227,images/pixabay_cat_001111.jpg,images/pixabay_cat_001380.jpg,Eddy,001,2021-08-27_13h26.15.905,Cat face experiment_750-999,2021.1.4,Win32,144.4251878
,,,,,,p,1.2583,0,228,228,228,1,228,images/pixabay_cat_001112.jpg,images/pixabay_cat_001381.jpg,Eddy,001,2021-08-27_13h26.15.905,Cat face experiment_750-999,2021.1.4,Win32,144.4251878
,,,,,,p,1.6969,0,229,229,229,1,229,images/pixabay_cat_001113.jpg,images/pixabay_cat_001382.jpg,Eddy,001,2021-08-27_13h26.15.905,Cat face experiment_750-999,2021.1.4,Win32,144.4251878
,,,,,,p,1.008,0,230,230,230,1,230,images/pixabay_cat_001114.jpg,images/pixabay_cat_001383.jpg,Eddy,001,2021-08-27_13h26.15.905,Cat face experiment_750-999,2021.1.4,Win32,144.4251878
,,,,,,q,0.8518,0,231,231,231,1,231,images/pixabay_cat_001115.jpg,images/pixabay_cat_001384.jpg,Eddy,001,2021-08-27_13h26.15.905,Cat face experiment_750-999,2021.1.4,Win32,144.4251878
,,,,,,q,1.5792,0,232,232,232,1,232,images/pixabay_cat_001116.jpg,images/pixabay_cat_001386.jpg,Eddy,001,2021-08-27_13h26.15.905,Cat face experiment_750-999,2021.1.4,Win32,144.4251878
,,,,,,p,1.1604,0,233,233,233,1,233,images/pixabay_cat_001117.jpg,images/pixabay_cat_001387.jpg,Eddy,001,2021-08-27_13h26.15.905,Cat face experiment_750-999,2021.1.4,Win32,144.4251878
,,,,,,q,3.4096,0,234,234,234,1,234,images/pixabay_cat_001118.jpg,images/pixabay_cat_001388.jpg,Eddy,001,2021-08-27_13h26.15.905,Cat face experiment_750-999,2021.1.4,Win32,144.4251878
,,,,,,q,1.213,0,235,235,235,1,235,images/pixabay_cat_001119.jpg,images/pixabay_cat_001389.jpg,Eddy,001,2021-08-27_13h26.15.905,Cat face experiment_750-999,2021.1.4,Win32,144.4251878
,,,,,,p,0.8698,0,236,236,236,1,236,images/pixabay_cat_001120.jpg,images/pixabay_cat_001391.jpg,Eddy,001,2021-08-27_13h26.15.905,Cat face experiment_750-999,2021.1.4,Win32,144.4251878
,,,,,,q,1.6088,0,237,237,237,1,237,images/pixabay_cat_001121.jpg,images/pixabay_cat_001392.jpg,Eddy,001,2021-08-27_13h26.15.905,Cat face experiment_750-999,2021.1.4,Win32,144.4251878
,,,,,,p,1.6636,0,238,238,238,1,238,images/pixabay_cat_001122.jpg,images/pixabay_cat_001393.jpg,Eddy,001,2021-08-27_13h26.15.905,Cat face experiment_750-999,2021.1.4,Win32,144.4251878
,,,,,,q,1.3458,0,239,239,239,1,239,images/pixabay_cat_001123.jpg,images/pixabay_cat_001394.jpg,Eddy,001,2021-08-27_13h26.15.905,Cat face experiment_750-999,2021.1.4,Win32,144.4251878
,,,,,,p,1.3606,0,240,240,240,1,240,images/pixabay_cat_001124.jpg,images/pixabay_cat_001395.jpg,Eddy,001,2021-08-27_13h26.15.905,Cat face experiment_750-999,2021.1.4,Win32,144.4251878
,,,,,,q,1.0256,0,241,241,241,1,241,images/pixabay_cat_001125.jpg,images/pixabay_cat_001396.jpg,Eddy,001,2021-08-27_13h26.15.905,Cat face experiment_750-999,2021.1.4,Win32,144.4251878
,,,,,,q,2.7904,0,242,242,242,1,242,images/pixabay_cat_001126.jpg,images/pixabay_cat_001397.jpg,Eddy,001,2021-08-27_13h26.15.905,Cat face experiment_750-999,2021.1.4,Win32,144.4251878
,,,,,,p,1.5298,0,243,243,243,1,243,images/pixabay_cat_001127.jpg,images/pixabay_cat_001398.jpg,Eddy,001,2021-08-27_13h26.15.905,Cat face experiment_750-999,2021.1.4,Win32,144.4251878
,,,,,,q,2.8119,0,244,244,244,1,244,images/pixabay_cat_001128.jpg,images/pixabay_cat_001399.jpg,Eddy,001,2021-08-27_13h26.15.905,Cat face experiment_750-999,2021.1.4,Win32,144.4251878
,,,,,,q,1.7009,0,245,245,245,1,245,images/pixabay_cat_001129.jpg,images/pixabay_cat_001400.jpg,Eddy,001,2021-08-27_13h26.15.905,Cat face experiment_750-999,2021.1.4,Win32,144.4251878
,,,,,,p,2.0402,0,246,246,246,1,246,images/pixabay_cat_001130.jpg,images/pixabay_cat_001401.jpg,Eddy,001,2021-08-27_13h26.15.905,Cat face experiment_750-999,2021.1.4,Win32,144.4251878
,,,,,,q,1.1594,0,247,247,247,1,247,images/pixabay_cat_001131.jpg,images/pixabay_cat_001402.jpg,Eddy,001,2021-08-27_13h26.15.905,Cat face experiment_750-999,2021.1.4,Win32,144.4251878
,,,,,,p,0.8663,0,248,248,248,1,248,images/pixabay_cat_001132.jpg,images/pixabay_cat_001403.jpg,Eddy,001,2021-08-27_13h26.15.905,Cat face experiment_750-999,2021.1.4,Win32,144.4251878
,,,,,,p,2.3652,0,249,249,249,1,249,images/pixabay_cat_001133.jpg,images/pixabay_cat_001404.jpg,Eddy,001,2021-08-27_13h26.15.905,Cat face experiment_750-999,2021.1.4,Win32,144.4251878
