key_resp.keys,key_resp.rt,key_resp_2.keys,key_resp_2.rt,key_resp_3.keys,key_resp_3.rt,key_resp_4.keys,key_resp_4.rt,trials.thisRepN,trials.thisTrialN,trials.thisN,trials.thisIndex,trials.ran,trail_nums,img1,img2,participant,session,date,expName,psychopyVersion,OS,frameRate
space,1.2521,space,0.477,space,0.7974,p,3.944,0,0,0,0,1,0,images/pixabay_cat_000858.jpg,images/pixabay_cat_001134.jpg,Jesse,001,2021-07-19_15h38.48.912,Cat face experiment_750-999,2021.1.4,Win32,60.10699044
,,,,,,p,1.2595,0,1,1,1,1,1,images/pixabay_cat_000859.jpg,images/pixabay_cat_001135.jpg,Jesse,001,2021-07-19_15h38.48.912,Cat face experiment_750-999,2021.1.4,Win32,60.10699044
,,,,,,p,0.8185,0,2,2,2,1,2,images/pixabay_cat_000860.jpg,images/pixabay_cat_001136.jpg,Jesse,001,2021-07-19_15h38.48.912,Cat face experiment_750-999,2021.1.4,Win32,60.10699044
,,,,,,p,0.7609,0,3,3,3,1,3,images/pixabay_cat_000862.jpg,images/pixabay_cat_001137.jpg,Jesse,001,2021-07-19_15h38.48.912,Cat face experiment_750-999,2021.1.4,Win32,60.10699044
,,,,,,p,0.7953,0,4,4,4,1,4,images/pixabay_cat_000863.jpg,images/pixabay_cat_001138.jpg,Jesse,001,2021-07-19_15h38.48.912,Cat face experiment_750-999,2021.1.4,Win32,60.10699044
,,,,,,p,0.7475,0,5,5,5,1,5,images/pixabay_cat_000864.jpg,images/pixabay_cat_001139.jpg,Jesse,001,2021-07-19_15h38.48.912,Cat face experiment_750-999,2021.1.4,Win32,60.10699044
,,,,,,p,0.75,0,6,6,6,1,6,images/pixabay_cat_000865.jpg,images/pixabay_cat_001140.jpg,Jesse,001,2021-07-19_15h38.48.912,Cat face experiment_750-999,2021.1.4,Win32,60.10699044
,,,,,,p,0.7841,0,7,7,7,1,7,images/pixabay_cat_000866.jpg,images/pixabay_cat_001141.jpg,Jesse,001,2021-07-19_15h38.48.912,Cat face experiment_750-999,2021.1.4,Win32,60.10699044
,,,,,,p,0.8837,0,8,8,8,1,8,images/pixabay_cat_000868.jpg,images/pixabay_cat_001142.jpg,Jesse,001,2021-07-19_15h38.48.912,Cat face experiment_750-999,2021.1.4,Win32,60.10699044
,,,,,,p,1.5388,0,9,9,9,1,9,images/pixabay_cat_000869.jpg,images/pixabay_cat_001145.jpg,Jesse,001,2021-07-19_15h38.48.912,Cat face experiment_750-999,2021.1.4,Win32,60.10699044
,,,,,,q,0.7741,0,10,10,10,1,10,images/pixabay_cat_000870.jpg,images/pixabay_cat_001146.jpg,Jesse,001,2021-07-19_15h38.48.912,Cat face experiment_750-999,2021.1.4,Win32,60.10699044
,,,,,,p,0.9836,0,11,11,11,1,11,images/pixabay_cat_000871.jpg,images/pixabay_cat_001147.jpg,Jesse,001,2021-07-19_15h38.48.912,Cat face experiment_750-999,2021.1.4,Win32,60.10699044
,,,,,,p,0.9209,0,12,12,12,1,12,images/pixabay_cat_000872.jpg,images/pixabay_cat_001148.jpg,Jesse,001,2021-07-19_15h38.48.912,Cat face experiment_750-999,2021.1.4,Win32,60.10699044
,,,,,,p,0.7242,0,13,13,13,1,13,images/pixabay_cat_000873.jpg,images/pixabay_cat_001149.jpg,Jesse,001,2021-07-19_15h38.48.912,Cat face experiment_750-999,2021.1.4,Win32,60.10699044
,,,,,,q,0.7335,0,14,14,14,1,14,images/pixabay_cat_000874.jpg,images/pixabay_cat_001150.jpg,Jesse,001,2021-07-19_15h38.48.912,Cat face experiment_750-999,2021.1.4,Win32,60.10699044
,,,,,,q,0.877,0,15,15,15,1,15,images/pixabay_cat_000875.jpg,images/pixabay_cat_001151.jpg,Jesse,001,2021-07-19_15h38.48.912,Cat face experiment_750-999,2021.1.4,Win32,60.10699044
,,,,,,q,0.9266,0,16,16,16,1,16,images/pixabay_cat_000877.jpg,images/pixabay_cat_001152.jpg,Jesse,001,2021-07-19_15h38.48.912,Cat face experiment_750-999,2021.1.4,Win32,60.10699044
,,,,,,q,1.0066,0,17,17,17,1,17,images/pixabay_cat_000878.jpg,images/pixabay_cat_001153.jpg,Jesse,001,2021-07-19_15h38.48.912,Cat face experiment_750-999,2021.1.4,Win32,60.10699044
,,,,,,p,0.922,0,18,18,18,1,18,images/pixabay_cat_000879.jpg,images/pixabay_cat_001154.jpg,Jesse,001,2021-07-19_15h38.48.912,Cat face experiment_750-999,2021.1.4,Win32,60.10699044
,,,,,,q,0.7906,0,19,19,19,1,19,images/pixabay_cat_000880.jpg,images/pixabay_cat_001155.jpg,Jesse,001,2021-07-19_15h38.48.912,Cat face experiment_750-999,2021.1.4,Win32,60.10699044
,,,,,,p,0.7094,0,20,20,20,1,20,images/pixabay_cat_000881.jpg,images/pixabay_cat_001156.jpg,Jesse,001,2021-07-19_15h38.48.912,Cat face experiment_750-999,2021.1.4,Win32,60.10699044
,,,,,,p,0.7942,0,21,21,21,1,21,images/pixabay_cat_000882.jpg,images/pixabay_cat_001157.jpg,Jesse,001,2021-07-19_15h38.48.912,Cat face experiment_750-999,2021.1.4,Win32,60.10699044
,,,,,,p,0.8455,0,22,22,22,1,22,images/pixabay_cat_000883.jpg,images/pixabay_cat_001158.jpg,Jesse,001,2021-07-19_15h38.48.912,Cat face experiment_750-999,2021.1.4,Win32,60.10699044
,,,,,,p,1.0261,0,23,23,23,1,23,images/pixabay_cat_000884.jpg,images/pixabay_cat_001159.jpg,Jesse,001,2021-07-19_15h38.48.912,Cat face experiment_750-999,2021.1.4,Win32,60.10699044
,,,,,,p,0.744,0,24,24,24,1,24,images/pixabay_cat_000885.jpg,images/pixabay_cat_001160.jpg,Jesse,001,2021-07-19_15h38.48.912,Cat face experiment_750-999,2021.1.4,Win32,60.10699044
,,,,,,q,0.7632,0,25,25,25,1,25,images/pixabay_cat_000886.jpg,images/pixabay_cat_001161.jpg,Jesse,001,2021-07-19_15h38.48.912,Cat face experiment_750-999,2021.1.4,Win32,60.10699044
,,,,,,p,1.0269,0,26,26,26,1,26,images/pixabay_cat_000887.jpg,images/pixabay_cat_001162.jpg,Jesse,001,2021-07-19_15h38.48.912,Cat face experiment_750-999,2021.1.4,Win32,60.10699044
,,,,,,p,0.6811,0,27,27,27,1,27,images/pixabay_cat_000888.jpg,images/pixabay_cat_001163.jpg,Jesse,001,2021-07-19_15h38.48.912,Cat face experiment_750-999,2021.1.4,Win32,60.10699044
,,,,,,q,0.897,0,28,28,28,1,28,images/pixabay_cat_000891.jpg,images/pixabay_cat_001164.jpg,Jesse,001,2021-07-19_15h38.48.912,Cat face experiment_750-999,2021.1.4,Win32,60.10699044
,,,,,,p,0.7005,0,29,29,29,1,29,images/pixabay_cat_000892.jpg,images/pixabay_cat_001165.jpg,Jesse,001,2021-07-19_15h38.48.912,Cat face experiment_750-999,2021.1.4,Win32,60.10699044
,,,,,,p,0.7036,0,30,30,30,1,30,images/pixabay_cat_000894.jpg,images/pixabay_cat_001166.jpg,Jesse,001,2021-07-19_15h38.48.912,Cat face experiment_750-999,2021.1.4,Win32,60.10699044
,,,,,,q,1.1504,0,31,31,31,1,31,images/pixabay_cat_000895.jpg,images/pixabay_cat_001167.jpg,Jesse,001,2021-07-19_15h38.48.912,Cat face experiment_750-999,2021.1.4,Win32,60.10699044
,,,,,,q,1.6049,0,32,32,32,1,32,images/pixabay_cat_000896.jpg,images/pixabay_cat_001168.jpg,Jesse,001,2021-07-19_15h38.48.912,Cat face experiment_750-999,2021.1.4,Win32,60.10699044
,,,,,,p,0.8217,0,33,33,33,1,33,images/pixabay_cat_000897.jpg,images/pixabay_cat_001169.jpg,Jesse,001,2021-07-19_15h38.48.912,Cat face experiment_750-999,2021.1.4,Win32,60.10699044
,,,,,,p,0.7911,0,34,34,34,1,34,images/pixabay_cat_000898.jpg,images/pixabay_cat_001170.jpg,Jesse,001,2021-07-19_15h38.48.912,Cat face experiment_750-999,2021.1.4,Win32,60.10699044
,,,,,,p,0.7767,0,35,35,35,1,35,images/pixabay_cat_000899.jpg,images/pixabay_cat_001171.jpg,Jesse,001,2021-07-19_15h38.48.912,Cat face experiment_750-999,2021.1.4,Win32,60.10699044
,,,,,,p,1.0898,0,36,36,36,1,36,images/pixabay_cat_000900.jpg,images/pixabay_cat_001172.jpg,Jesse,001,2021-07-19_15h38.48.912,Cat face experiment_750-999,2021.1.4,Win32,60.10699044
,,,,,,q,0.9222,0,37,37,37,1,37,images/pixabay_cat_000902.jpg,images/pixabay_cat_001173.jpg,Jesse,001,2021-07-19_15h38.48.912,Cat face experiment_750-999,2021.1.4,Win32,60.10699044
,,,,,,p,0.9552,0,38,38,38,1,38,images/pixabay_cat_000903.jpg,images/pixabay_cat_001174.jpg,Jesse,001,2021-07-19_15h38.48.912,Cat face experiment_750-999,2021.1.4,Win32,60.10699044
,,,,,,p,1.0035,0,39,39,39,1,39,images/pixabay_cat_000904.jpg,images/pixabay_cat_001175.jpg,Jesse,001,2021-07-19_15h38.48.912,Cat face experiment_750-999,2021.1.4,Win32,60.10699044
,,,,,,q,0.9031,0,40,40,40,1,40,images/pixabay_cat_000905.jpg,images/pixabay_cat_001176.jpg,Jesse,001,2021-07-19_15h38.48.912,Cat face experiment_750-999,2021.1.4,Win32,60.10699044
,,,,,,p,0.9362,0,41,41,41,1,41,images/pixabay_cat_000906.jpg,images/pixabay_cat_001177.jpg,Jesse,001,2021-07-19_15h38.48.912,Cat face experiment_750-999,2021.1.4,Win32,60.10699044
,,,,,,p,1.051,0,42,42,42,1,42,images/pixabay_cat_000907.jpg,images/pixabay_cat_001178.jpg,Jesse,001,2021-07-19_15h38.48.912,Cat face experiment_750-999,2021.1.4,Win32,60.10699044
,,,,,,q,0.9982,0,43,43,43,1,43,images/pixabay_cat_000908.jpg,images/pixabay_cat_001180.jpg,Jesse,001,2021-07-19_15h38.48.912,Cat face experiment_750-999,2021.1.4,Win32,60.10699044
,,,,,,p,0.8835,0,44,44,44,1,44,images/pixabay_cat_000909.jpg,images/pixabay_cat_001181.jpg,Jesse,001,2021-07-19_15h38.48.912,Cat face experiment_750-999,2021.1.4,Win32,60.10699044
,,,,,,p,1.3174,0,45,45,45,1,45,images/pixabay_cat_000910.jpg,images/pixabay_cat_001182.jpg,Jesse,001,2021-07-19_15h38.48.912,Cat face experiment_750-999,2021.1.4,Win32,60.10699044
,,,,,,p,1.6779,0,46,46,46,1,46,images/pixabay_cat_000911.jpg,images/pixabay_cat_001183.jpg,Jesse,001,2021-07-19_15h38.48.912,Cat face experiment_750-999,2021.1.4,Win32,60.10699044
,,,,,,p,1.1387,0,47,47,47,1,47,images/pixabay_cat_000912.jpg,images/pixabay_cat_001184.jpg,Jesse,001,2021-07-19_15h38.48.912,Cat face experiment_750-999,2021.1.4,Win32,60.10699044
,,,,,,p,0.8718,0,48,48,48,1,48,images/pixabay_cat_000913.jpg,images/pixabay_cat_001185.jpg,Jesse,001,2021-07-19_15h38.48.912,Cat face experiment_750-999,2021.1.4,Win32,60.10699044
,,,,,,q,1.267,0,49,49,49,1,49,images/pixabay_cat_000914.jpg,images/pixabay_cat_001186.jpg,Jesse,001,2021-07-19_15h38.48.912,Cat face experiment_750-999,2021.1.4,Win32,60.10699044
,,,,,,q,1.0465,0,50,50,50,1,50,images/pixabay_cat_000915.jpg,images/pixabay_cat_001187.jpg,Jesse,001,2021-07-19_15h38.48.912,Cat face experiment_750-999,2021.1.4,Win32,60.10699044
,,,,,,q,1.0277,0,51,51,51,1,51,images/pixabay_cat_000916.jpg,images/pixabay_cat_001188.jpg,Jesse,001,2021-07-19_15h38.48.912,Cat face experiment_750-999,2021.1.4,Win32,60.10699044
,,,,,,q,1.0257,0,52,52,52,1,52,images/pixabay_cat_000917.jpg,images/pixabay_cat_001189.jpg,Jesse,001,2021-07-19_15h38.48.912,Cat face experiment_750-999,2021.1.4,Win32,60.10699044
,,,,,,p,0.7942,0,53,53,53,1,53,images/pixabay_cat_000918.jpg,images/pixabay_cat_001190.jpg,Jesse,001,2021-07-19_15h38.48.912,Cat face experiment_750-999,2021.1.4,Win32,60.10699044
,,,,,,p,0.8618,0,54,54,54,1,54,images/pixabay_cat_000919.jpg,images/pixabay_cat_001191.jpg,Jesse,001,2021-07-19_15h38.48.912,Cat face experiment_750-999,2021.1.4,Win32,60.10699044
,,,,,,p,0.7166,0,55,55,55,1,55,images/pixabay_cat_000920.jpg,images/pixabay_cat_001192.jpg,Jesse,001,2021-07-19_15h38.48.912,Cat face experiment_750-999,2021.1.4,Win32,60.10699044
,,,,,,q,0.9308,0,56,56,56,1,56,images/pixabay_cat_000921.jpg,images/pixabay_cat_001193.jpg,Jesse,001,2021-07-19_15h38.48.912,Cat face experiment_750-999,2021.1.4,Win32,60.10699044
,,,,,,p,0.7833,0,57,57,57,1,57,images/pixabay_cat_000922.jpg,images/pixabay_cat_001194.jpg,Jesse,001,2021-07-19_15h38.48.912,Cat face experiment_750-999,2021.1.4,Win32,60.10699044
,,,,,,q,0.8335,0,58,58,58,1,58,images/pixabay_cat_000923.jpg,images/pixabay_cat_001197.jpg,Jesse,001,2021-07-19_15h38.48.912,Cat face experiment_750-999,2021.1.4,Win32,60.10699044
,,,,,,q,1.6689,0,59,59,59,1,59,images/pixabay_cat_000924.jpg,images/pixabay_cat_001198.jpg,Jesse,001,2021-07-19_15h38.48.912,Cat face experiment_750-999,2021.1.4,Win32,60.10699044
,,,,,,p,0.8022,0,60,60,60,1,60,images/pixabay_cat_000925.jpg,images/pixabay_cat_001199.jpg,Jesse,001,2021-07-19_15h38.48.912,Cat face experiment_750-999,2021.1.4,Win32,60.10699044
,,,,,,q,0.8846,0,61,61,61,1,61,images/pixabay_cat_000926.jpg,images/pixabay_cat_001200.jpg,Jesse,001,2021-07-19_15h38.48.912,Cat face experiment_750-999,2021.1.4,Win32,60.10699044
,,,,,,p,0.6883,0,62,62,62,1,62,images/pixabay_cat_000927.jpg,images/pixabay_cat_001201.jpg,Jesse,001,2021-07-19_15h38.48.912,Cat face experiment_750-999,2021.1.4,Win32,60.10699044
,,,,,,q,0.9695,0,63,63,63,1,63,images/pixabay_cat_000928.jpg,images/pixabay_cat_001202.jpg,Jesse,001,2021-07-19_15h38.48.912,Cat face experiment_750-999,2021.1.4,Win32,60.10699044
,,,,,,p,0.837,0,64,64,64,1,64,images/pixabay_cat_000930.jpg,images/pixabay_cat_001203.jpg,Jesse,001,2021-07-19_15h38.48.912,Cat face experiment_750-999,2021.1.4,Win32,60.10699044
,,,,,,q,0.9198,0,65,65,65,1,65,images/pixabay_cat_000931.jpg,images/pixabay_cat_001204.jpg,Jesse,001,2021-07-19_15h38.48.912,Cat face experiment_750-999,2021.1.4,Win32,60.10699044
,,,,,,p,0.7381,0,66,66,66,1,66,images/pixabay_cat_000932.jpg,images/pixabay_cat_001206.jpg,Jesse,001,2021-07-19_15h38.48.912,Cat face experiment_750-999,2021.1.4,Win32,60.10699044
,,,,,,q,1.5097,0,67,67,67,1,67,images/pixabay_cat_000933.jpg,images/pixabay_cat_001207.jpg,Jesse,001,2021-07-19_15h38.48.912,Cat face experiment_750-999,2021.1.4,Win32,60.10699044
,,,,,,p,1.2356,0,68,68,68,1,68,images/pixabay_cat_000934.jpg,images/pixabay_cat_001208.jpg,Jesse,001,2021-07-19_15h38.48.912,Cat face experiment_750-999,2021.1.4,Win32,60.10699044
,,,,,,q,0.9513,0,69,69,69,1,69,images/pixabay_cat_000936.jpg,images/pixabay_cat_001209.jpg,Jesse,001,2021-07-19_15h38.48.912,Cat face experiment_750-999,2021.1.4,Win32,60.10699044
,,,,,,p,4.0132,0,70,70,70,1,70,images/pixabay_cat_000937.jpg,images/pixabay_cat_001210.jpg,Jesse,001,2021-07-19_15h38.48.912,Cat face experiment_750-999,2021.1.4,Win32,60.10699044
,,,,,,p,1.056,0,71,71,71,1,71,images/pixabay_cat_000938.jpg,images/pixabay_cat_001211.jpg,Jesse,001,2021-07-19_15h38.48.912,Cat face experiment_750-999,2021.1.4,Win32,60.10699044
,,,,,,p,1.0036,0,72,72,72,1,72,images/pixabay_cat_000939.jpg,images/pixabay_cat_001213.jpg,Jesse,001,2021-07-19_15h38.48.912,Cat face experiment_750-999,2021.1.4,Win32,60.10699044
,,,,,,q,0.9035,0,73,73,73,1,73,images/pixabay_cat_000940.jpg,images/pixabay_cat_001214.jpg,Jesse,001,2021-07-19_15h38.48.912,Cat face experiment_750-999,2021.1.4,Win32,60.10699044
,,,,,,p,0.7223,0,74,74,74,1,74,images/pixabay_cat_000941.jpg,images/pixabay_cat_001215.jpg,Jesse,001,2021-07-19_15h38.48.912,Cat face experiment_750-999,2021.1.4,Win32,60.10699044
,,,,,,q,0.8564,0,75,75,75,1,75,images/pixabay_cat_000942.jpg,images/pixabay_cat_001216.jpg,Jesse,001,2021-07-19_15h38.48.912,Cat face experiment_750-999,2021.1.4,Win32,60.10699044
,,,,,,p,0.8074,0,76,76,76,1,76,images/pixabay_cat_000943.jpg,images/pixabay_cat_001217.jpg,Jesse,001,2021-07-19_15h38.48.912,Cat face experiment_750-999,2021.1.4,Win32,60.10699044
,,,,,,q,0.7603,0,77,77,77,1,77,images/pixabay_cat_000944.jpg,images/pixabay_cat_001218.jpg,Jesse,001,2021-07-19_15h38.48.912,Cat face experiment_750-999,2021.1.4,Win32,60.10699044
,,,,,,q,0.9432,0,78,78,78,1,78,images/pixabay_cat_000945.jpg,images/pixabay_cat_001219.jpg,Jesse,001,2021-07-19_15h38.48.912,Cat face experiment_750-999,2021.1.4,Win32,60.10699044
,,,,,,q,1.0572,0,79,79,79,1,79,images/pixabay_cat_000946.jpg,images/pixabay_cat_001220.jpg,Jesse,001,2021-07-19_15h38.48.912,Cat face experiment_750-999,2021.1.4,Win32,60.10699044
,,,,,,p,0.8085,0,80,80,80,1,80,images/pixabay_cat_000947.jpg,images/pixabay_cat_001221.jpg,Jesse,001,2021-07-19_15h38.48.912,Cat face experiment_750-999,2021.1.4,Win32,60.10699044
,,,,,,p,0.8759,0,81,81,81,1,81,images/pixabay_cat_000948.jpg,images/pixabay_cat_001222.jpg,Jesse,001,2021-07-19_15h38.48.912,Cat face experiment_750-999,2021.1.4,Win32,60.10699044
,,,,,,q,1.4506,0,82,82,82,1,82,images/pixabay_cat_000949.jpg,images/pixabay_cat_001223.jpg,Jesse,001,2021-07-19_15h38.48.912,Cat face experiment_750-999,2021.1.4,Win32,60.10699044
,,,,,,p,2.8792,0,83,83,83,1,83,images/pixabay_cat_000950.jpg,images/pixabay_cat_001224.jpg,Jesse,001,2021-07-19_15h38.48.912,Cat face experiment_750-999,2021.1.4,Win32,60.10699044
,,,,,,q,0.9436,0,84,84,84,1,84,images/pixabay_cat_000951.jpg,images/pixabay_cat_001225.jpg,Jesse,001,2021-07-19_15h38.48.912,Cat face experiment_750-999,2021.1.4,Win32,60.10699044
,,,,,,p,0.7834,0,85,85,85,1,85,images/pixabay_cat_000952.jpg,images/pixabay_cat_001226.jpg,Jesse,001,2021-07-19_15h38.48.912,Cat face experiment_750-999,2021.1.4,Win32,60.10699044
,,,,,,q,0.7141,0,86,86,86,1,86,images/pixabay_cat_000953.jpg,images/pixabay_cat_001227.jpg,Jesse,001,2021-07-19_15h38.48.912,Cat face experiment_750-999,2021.1.4,Win32,60.10699044
,,,,,,q,1.0948,0,87,87,87,1,87,images/pixabay_cat_000954.jpg,images/pixabay_cat_001228.jpg,Jesse,001,2021-07-19_15h38.48.912,Cat face experiment_750-999,2021.1.4,Win32,60.10699044
,,,,,,q,1.1889,0,88,88,88,1,88,images/pixabay_cat_000955.jpg,images/pixabay_cat_001229.jpg,Jesse,001,2021-07-19_15h38.48.912,Cat face experiment_750-999,2021.1.4,Win32,60.10699044
,,,,,,q,1.0029,0,89,89,89,1,89,images/pixabay_cat_000956.jpg,images/pixabay_cat_001230.jpg,Jesse,001,2021-07-19_15h38.48.912,Cat face experiment_750-999,2021.1.4,Win32,60.10699044
,,,,,,q,1.1336,0,90,90,90,1,90,images/pixabay_cat_000957.jpg,images/pixabay_cat_001231.jpg,Jesse,001,2021-07-19_15h38.48.912,Cat face experiment_750-999,2021.1.4,Win32,60.10699044
,,,,,,q,0.9967,0,91,91,91,1,91,images/pixabay_cat_000958.jpg,images/pixabay_cat_001232.jpg,Jesse,001,2021-07-19_15h38.48.912,Cat face experiment_750-999,2021.1.4,Win32,60.10699044
,,,,,,q,1.076,0,92,92,92,1,92,images/pixabay_cat_000959.jpg,images/pixabay_cat_001233.jpg,Jesse,001,2021-07-19_15h38.48.912,Cat face experiment_750-999,2021.1.4,Win32,60.10699044
,,,,,,q,0.9905,0,93,93,93,1,93,images/pixabay_cat_000960.jpg,images/pixabay_cat_001234.jpg,Jesse,001,2021-07-19_15h38.48.912,Cat face experiment_750-999,2021.1.4,Win32,60.10699044
,,,,,,p,0.8078,0,94,94,94,1,94,images/pixabay_cat_000961.jpg,images/pixabay_cat_001235.jpg,Jesse,001,2021-07-19_15h38.48.912,Cat face experiment_750-999,2021.1.4,Win32,60.10699044
,,,,,,p,0.7603,0,95,95,95,1,95,images/pixabay_cat_000962.jpg,images/pixabay_cat_001236.jpg,Jesse,001,2021-07-19_15h38.48.912,Cat face experiment_750-999,2021.1.4,Win32,60.10699044
,,,,,,p,0.9756,0,96,96,96,1,96,images/pixabay_cat_000963.jpg,images/pixabay_cat_001237.jpg,Jesse,001,2021-07-19_15h38.48.912,Cat face experiment_750-999,2021.1.4,Win32,60.10699044
,,,,,,q,0.8426,0,97,97,97,1,97,images/pixabay_cat_000964.jpg,images/pixabay_cat_001238.jpg,Jesse,001,2021-07-19_15h38.48.912,Cat face experiment_750-999,2021.1.4,Win32,60.10699044
,,,,,,p,0.8437,0,98,98,98,1,98,images/pixabay_cat_000965.jpg,images/pixabay_cat_001239.jpg,Jesse,001,2021-07-19_15h38.48.912,Cat face experiment_750-999,2021.1.4,Win32,60.10699044
,,,,,,p,0.876,0,99,99,99,1,99,images/pixabay_cat_000966.jpg,images/pixabay_cat_001240.jpg,Jesse,001,2021-07-19_15h38.48.912,Cat face experiment_750-999,2021.1.4,Win32,60.10699044
,,,,,,p,0.7957,0,100,100,100,1,100,images/pixabay_cat_000967.jpg,images/pixabay_cat_001241.jpg,Jesse,001,2021-07-19_15h38.48.912,Cat face experiment_750-999,2021.1.4,Win32,60.10699044
,,,,,,q,0.797,0,101,101,101,1,101,images/pixabay_cat_000969.jpg,images/pixabay_cat_001242.jpg,Jesse,001,2021-07-19_15h38.48.912,Cat face experiment_750-999,2021.1.4,Win32,60.10699044
,,,,,,p,0.8167,0,102,102,102,1,102,images/pixabay_cat_000970.jpg,images/pixabay_cat_001243.jpg,Jesse,001,2021-07-19_15h38.48.912,Cat face experiment_750-999,2021.1.4,Win32,60.10699044
,,,,,,q,0.8009,0,103,103,103,1,103,images/pixabay_cat_000971.jpg,images/pixabay_cat_001244.jpg,Jesse,001,2021-07-19_15h38.48.912,Cat face experiment_750-999,2021.1.4,Win32,60.10699044
,,,,,,q,0.8844,0,104,104,104,1,104,images/pixabay_cat_000972.jpg,images/pixabay_cat_001245.jpg,Jesse,001,2021-07-19_15h38.48.912,Cat face experiment_750-999,2021.1.4,Win32,60.10699044
,,,,,,p,0.8017,0,105,105,105,1,105,images/pixabay_cat_000973.jpg,images/pixabay_cat_001246.jpg,Jesse,001,2021-07-19_15h38.48.912,Cat face experiment_750-999,2021.1.4,Win32,60.10699044
,,,,,,q,1.3922,0,106,106,106,1,106,images/pixabay_cat_000974.jpg,images/pixabay_cat_001247.jpg,Jesse,001,2021-07-19_15h38.48.912,Cat face experiment_750-999,2021.1.4,Win32,60.10699044
,,,,,,p,0.7444,0,107,107,107,1,107,images/pixabay_cat_000975.jpg,images/pixabay_cat_001248.jpg,Jesse,001,2021-07-19_15h38.48.912,Cat face experiment_750-999,2021.1.4,Win32,60.10699044
,,,,,,q,0.9425,0,108,108,108,1,108,images/pixabay_cat_000976.jpg,images/pixabay_cat_001249.jpg,Jesse,001,2021-07-19_15h38.48.912,Cat face experiment_750-999,2021.1.4,Win32,60.10699044
,,,,,,p,0.7615,0,109,109,109,1,109,images/pixabay_cat_000977.jpg,images/pixabay_cat_001250.jpg,Jesse,001,2021-07-19_15h38.48.912,Cat face experiment_750-999,2021.1.4,Win32,60.10699044
,,,,,,p,0.9439,0,110,110,110,1,110,images/pixabay_cat_000978.jpg,images/pixabay_cat_001251.jpg,Jesse,001,2021-07-19_15h38.48.912,Cat face experiment_750-999,2021.1.4,Win32,60.10699044
,,,,,,p,0.96,0,111,111,111,1,111,images/pixabay_cat_000979.jpg,images/pixabay_cat_001252.jpg,Jesse,001,2021-07-19_15h38.48.912,Cat face experiment_750-999,2021.1.4,Win32,60.10699044
,,,,,,q,0.8765,0,112,112,112,1,112,images/pixabay_cat_000981.jpg,images/pixabay_cat_001253.jpg,Jesse,001,2021-07-19_15h38.48.912,Cat face experiment_750-999,2021.1.4,Win32,60.10699044
,,,,,,p,0.8276,0,113,113,113,1,113,images/pixabay_cat_000982.jpg,images/pixabay_cat_001254.jpg,Jesse,001,2021-07-19_15h38.48.912,Cat face experiment_750-999,2021.1.4,Win32,60.10699044
,,,,,,p,0.8781,0,114,114,114,1,114,images/pixabay_cat_000983.jpg,images/pixabay_cat_001255.jpg,Jesse,001,2021-07-19_15h38.48.912,Cat face experiment_750-999,2021.1.4,Win32,60.10699044
,,,,,,q,1.1083,0,115,115,115,1,115,images/pixabay_cat_000984.jpg,images/pixabay_cat_001256.jpg,Jesse,001,2021-07-19_15h38.48.912,Cat face experiment_750-999,2021.1.4,Win32,60.10699044
,,,,,,q,0.9737,0,116,116,116,1,116,images/pixabay_cat_000985.jpg,images/pixabay_cat_001257.jpg,Jesse,001,2021-07-19_15h38.48.912,Cat face experiment_750-999,2021.1.4,Win32,60.10699044
,,,,,,p,1.2338,0,117,117,117,1,117,images/pixabay_cat_000986.jpg,images/pixabay_cat_001258.jpg,Jesse,001,2021-07-19_15h38.48.912,Cat face experiment_750-999,2021.1.4,Win32,60.10699044
,,,,,,p,0.8193,0,118,118,118,1,118,images/pixabay_cat_000987.jpg,images/pixabay_cat_001259.jpg,Jesse,001,2021-07-19_15h38.48.912,Cat face experiment_750-999,2021.1.4,Win32,60.10699044
,,,,,,q,1.2957,0,119,119,119,1,119,images/pixabay_cat_000991.jpg,images/pixabay_cat_001260.jpg,Jesse,001,2021-07-19_15h38.48.912,Cat face experiment_750-999,2021.1.4,Win32,60.10699044
,,,,,,q,1.223,0,120,120,120,1,120,images/pixabay_cat_000992.jpg,images/pixabay_cat_001261.jpg,Jesse,001,2021-07-19_15h38.48.912,Cat face experiment_750-999,2021.1.4,Win32,60.10699044
,,,,,,p,0.7421,0,121,121,121,1,121,images/pixabay_cat_000993.jpg,images/pixabay_cat_001262.jpg,Jesse,001,2021-07-19_15h38.48.912,Cat face experiment_750-999,2021.1.4,Win32,60.10699044
,,,,,,p,0.9747,0,122,122,122,1,122,images/pixabay_cat_000994.jpg,images/pixabay_cat_001263.jpg,Jesse,001,2021-07-19_15h38.48.912,Cat face experiment_750-999,2021.1.4,Win32,60.10699044
,,,,,,q,0.8747,0,123,123,123,1,123,images/pixabay_cat_000995.jpg,images/pixabay_cat_001264.jpg,Jesse,001,2021-07-19_15h38.48.912,Cat face experiment_750-999,2021.1.4,Win32,60.10699044
,,,,,,p,1.039,0,124,124,124,1,124,images/pixabay_cat_000996.jpg,images/pixabay_cat_001265.jpg,Jesse,001,2021-07-19_15h38.48.912,Cat face experiment_750-999,2021.1.4,Win32,60.10699044
,,,,,,p,1.1502,0,125,125,125,1,125,images/pixabay_cat_000997.jpg,images/pixabay_cat_001266.jpg,Jesse,001,2021-07-19_15h38.48.912,Cat face experiment_750-999,2021.1.4,Win32,60.10699044
,,,,,,p,0.9668,0,126,126,126,1,126,images/pixabay_cat_000998.jpg,images/pixabay_cat_001267.jpg,Jesse,001,2021-07-19_15h38.48.912,Cat face experiment_750-999,2021.1.4,Win32,60.10699044
,,,,,,p,1.7675,0,127,127,127,1,127,images/pixabay_cat_000999.jpg,images/pixabay_cat_001268.jpg,Jesse,001,2021-07-19_15h38.48.912,Cat face experiment_750-999,2021.1.4,Win32,60.10699044
,,,,,,q,1.0635,0,128,128,128,1,128,images/pixabay_cat_001000.jpg,images/pixabay_cat_001270.jpg,Jesse,001,2021-07-19_15h38.48.912,Cat face experiment_750-999,2021.1.4,Win32,60.10699044
,,,,,,q,0.978,0,129,129,129,1,129,images/pixabay_cat_001001.jpg,images/pixabay_cat_001271.jpg,Jesse,001,2021-07-19_15h38.48.912,Cat face experiment_750-999,2021.1.4,Win32,60.10699044
,,,,,,p,0.8466,0,130,130,130,1,130,images/pixabay_cat_001002.jpg,images/pixabay_cat_001273.jpg,Jesse,001,2021-07-19_15h38.48.912,Cat face experiment_750-999,2021.1.4,Win32,60.10699044
,,,,,,p,0.9289,0,131,131,131,1,131,images/pixabay_cat_001004.jpg,images/pixabay_cat_001274.jpg,Jesse,001,2021-07-19_15h38.48.912,Cat face experiment_750-999,2021.1.4,Win32,60.10699044
,,,,,,q,0.8959,0,132,132,132,1,132,images/pixabay_cat_001005.jpg,images/pixabay_cat_001275.jpg,Jesse,001,2021-07-19_15h38.48.912,Cat face experiment_750-999,2021.1.4,Win32,60.10699044
,,,,,,q,0.9286,0,133,133,133,1,133,images/pixabay_cat_001006.jpg,images/pixabay_cat_001276.jpg,Jesse,001,2021-07-19_15h38.48.912,Cat face experiment_750-999,2021.1.4,Win32,60.10699044
,,,,,,p,0.7168,0,134,134,134,1,134,images/pixabay_cat_001007.jpg,images/pixabay_cat_001277.jpg,Jesse,001,2021-07-19_15h38.48.912,Cat face experiment_750-999,2021.1.4,Win32,60.10699044
,,,,,,q,0.6847,0,135,135,135,1,135,images/pixabay_cat_001008.jpg,images/pixabay_cat_001278.jpg,Jesse,001,2021-07-19_15h38.48.912,Cat face experiment_750-999,2021.1.4,Win32,60.10699044
,,,,,,p,0.7537,0,136,136,136,1,136,images/pixabay_cat_001009.jpg,images/pixabay_cat_001279.jpg,Jesse,001,2021-07-19_15h38.48.912,Cat face experiment_750-999,2021.1.4,Win32,60.10699044
,,,,,,q,0.8375,0,137,137,137,1,137,images/pixabay_cat_001010.jpg,images/pixabay_cat_001280.jpg,Jesse,001,2021-07-19_15h38.48.912,Cat face experiment_750-999,2021.1.4,Win32,60.10699044
,,,,,,p,0.7241,0,138,138,138,1,138,images/pixabay_cat_001011.jpg,images/pixabay_cat_001281.jpg,Jesse,001,2021-07-19_15h38.48.912,Cat face experiment_750-999,2021.1.4,Win32,60.10699044
,,,,,,q,0.8257,0,139,139,139,1,139,images/pixabay_cat_001012.jpg,images/pixabay_cat_001282.jpg,Jesse,001,2021-07-19_15h38.48.912,Cat face experiment_750-999,2021.1.4,Win32,60.10699044
,,,,,,p,1.4338,0,140,140,140,1,140,images/pixabay_cat_001013.jpg,images/pixabay_cat_001283.jpg,Jesse,001,2021-07-19_15h38.48.912,Cat face experiment_750-999,2021.1.4,Win32,60.10699044
,,,,,,q,0.8998,0,141,141,141,1,141,images/pixabay_cat_001014.jpg,images/pixabay_cat_001284.jpg,Jesse,001,2021-07-19_15h38.48.912,Cat face experiment_750-999,2021.1.4,Win32,60.10699044
,,,,,,q,1.2761,0,142,142,142,1,142,images/pixabay_cat_001015.jpg,images/pixabay_cat_001285.jpg,Jesse,001,2021-07-19_15h38.48.912,Cat face experiment_750-999,2021.1.4,Win32,60.10699044
,,,,,,q,1.1545,0,143,143,143,1,143,images/pixabay_cat_001016.jpg,images/pixabay_cat_001288.jpg,Jesse,001,2021-07-19_15h38.48.912,Cat face experiment_750-999,2021.1.4,Win32,60.10699044
,,,,,,p,0.7721,0,144,144,144,1,144,images/pixabay_cat_001017.jpg,images/pixabay_cat_001289.jpg,Jesse,001,2021-07-19_15h38.48.912,Cat face experiment_750-999,2021.1.4,Win32,60.10699044
,,,,,,q,0.7417,0,145,145,145,1,145,images/pixabay_cat_001019.jpg,images/pixabay_cat_001290.jpg,Jesse,001,2021-07-19_15h38.48.912,Cat face experiment_750-999,2021.1.4,Win32,60.10699044
,,,,,,q,0.7606,0,146,146,146,1,146,images/pixabay_cat_001020.jpg,images/pixabay_cat_001291.jpg,Jesse,001,2021-07-19_15h38.48.912,Cat face experiment_750-999,2021.1.4,Win32,60.10699044
,,,,,,p,0.8778,0,147,147,147,1,147,images/pixabay_cat_001021.jpg,images/pixabay_cat_001292.jpg,Jesse,001,2021-07-19_15h38.48.912,Cat face experiment_750-999,2021.1.4,Win32,60.10699044
,,,,,,p,0.976,0,148,148,148,1,148,images/pixabay_cat_001022.jpg,images/pixabay_cat_001293.jpg,Jesse,001,2021-07-19_15h38.48.912,Cat face experiment_750-999,2021.1.4,Win32,60.10699044
,,,,,,p,0.7772,0,149,149,149,1,149,images/pixabay_cat_001023.jpg,images/pixabay_cat_001294.jpg,Jesse,001,2021-07-19_15h38.48.912,Cat face experiment_750-999,2021.1.4,Win32,60.10699044
,,,,,,p,1.1232,0,150,150,150,1,150,images/pixabay_cat_001024.jpg,images/pixabay_cat_001295.jpg,Jesse,001,2021-07-19_15h38.48.912,Cat face experiment_750-999,2021.1.4,Win32,60.10699044
,,,,,,p,1.2338,0,151,151,151,1,151,images/pixabay_cat_001025.jpg,images/pixabay_cat_001296.jpg,Jesse,001,2021-07-19_15h38.48.912,Cat face experiment_750-999,2021.1.4,Win32,60.10699044
,,,,,,p,1.0793,0,152,152,152,1,152,images/pixabay_cat_001026.jpg,images/pixabay_cat_001297.jpg,Jesse,001,2021-07-19_15h38.48.912,Cat face experiment_750-999,2021.1.4,Win32,60.10699044
,,,,,,p,1.4361,0,153,153,153,1,153,images/pixabay_cat_001027.jpg,images/pixabay_cat_001298.jpg,Jesse,001,2021-07-19_15h38.48.912,Cat face experiment_750-999,2021.1.4,Win32,60.10699044
,,,,,,q,0.9843,0,154,154,154,1,154,images/pixabay_cat_001028.jpg,images/pixabay_cat_001299.jpg,Jesse,001,2021-07-19_15h38.48.912,Cat face experiment_750-999,2021.1.4,Win32,60.10699044
,,,,,,q,1.1295,0,155,155,155,1,155,images/pixabay_cat_001030.jpg,images/pixabay_cat_001300.jpg,Jesse,001,2021-07-19_15h38.48.912,Cat face experiment_750-999,2021.1.4,Win32,60.10699044
,,,,,,p,0.8313,0,156,156,156,1,156,images/pixabay_cat_001031.jpg,images/pixabay_cat_001301.jpg,Jesse,001,2021-07-19_15h38.48.912,Cat face experiment_750-999,2021.1.4,Win32,60.10699044
,,,,,,q,0.8332,0,157,157,157,1,157,images/pixabay_cat_001032.jpg,images/pixabay_cat_001302.jpg,Jesse,001,2021-07-19_15h38.48.912,Cat face experiment_750-999,2021.1.4,Win32,60.10699044
,,,,,,p,0.6195,0,158,158,158,1,158,images/pixabay_cat_001033.jpg,images/pixabay_cat_001303.jpg,Jesse,001,2021-07-19_15h38.48.912,Cat face experiment_750-999,2021.1.4,Win32,60.10699044
,,,,,,q,0.6901,0,159,159,159,1,159,images/pixabay_cat_001034.jpg,images/pixabay_cat_001304.jpg,Jesse,001,2021-07-19_15h38.48.912,Cat face experiment_750-999,2021.1.4,Win32,60.10699044
,,,,,,q,1.0837,0,160,160,160,1,160,images/pixabay_cat_001035.jpg,images/pixabay_cat_001305.jpg,Jesse,001,2021-07-19_15h38.48.912,Cat face experiment_750-999,2021.1.4,Win32,60.10699044
,,,,,,q,0.7878,0,161,161,161,1,161,images/pixabay_cat_001036.jpg,images/pixabay_cat_001306.jpg,Jesse,001,2021-07-19_15h38.48.912,Cat face experiment_750-999,2021.1.4,Win32,60.10699044
,,,,,,q,0.8054,0,162,162,162,1,162,images/pixabay_cat_001037.jpg,images/pixabay_cat_001307.jpg,Jesse,001,2021-07-19_15h38.48.912,Cat face experiment_750-999,2021.1.4,Win32,60.10699044
,,,,,,p,1.1183,0,163,163,163,1,163,images/pixabay_cat_001038.jpg,images/pixabay_cat_001308.jpg,Jesse,001,2021-07-19_15h38.48.912,Cat face experiment_750-999,2021.1.4,Win32,60.10699044
,,,,,,q,0.8683,0,164,164,164,1,164,images/pixabay_cat_001039.jpg,images/pixabay_cat_001310.jpg,Jesse,001,2021-07-19_15h38.48.912,Cat face experiment_750-999,2021.1.4,Win32,60.10699044
,,,,,,p,0.6726,0,165,165,165,1,165,images/pixabay_cat_001041.jpg,images/pixabay_cat_001311.jpg,Jesse,001,2021-07-19_15h38.48.912,Cat face experiment_750-999,2021.1.4,Win32,60.10699044
,,,,,,q,0.9547,0,166,166,166,1,166,images/pixabay_cat_001042.jpg,images/pixabay_cat_001312.jpg,Jesse,001,2021-07-19_15h38.48.912,Cat face experiment_750-999,2021.1.4,Win32,60.10699044
,,,,,,p,0.8554,0,167,167,167,1,167,images/pixabay_cat_001043.jpg,images/pixabay_cat_001313.jpg,Jesse,001,2021-07-19_15h38.48.912,Cat face experiment_750-999,2021.1.4,Win32,60.10699044
,,,,,,q,0.6926,0,168,168,168,1,168,images/pixabay_cat_001044.jpg,images/pixabay_cat_001314.jpg,Jesse,001,2021-07-19_15h38.48.912,Cat face experiment_750-999,2021.1.4,Win32,60.10699044
,,,,,,q,0.827,0,169,169,169,1,169,images/pixabay_cat_001045.jpg,images/pixabay_cat_001315.jpg,Jesse,001,2021-07-19_15h38.48.912,Cat face experiment_750-999,2021.1.4,Win32,60.10699044
,,,,,,q,1.3695,0,170,170,170,1,170,images/pixabay_cat_001046.jpg,images/pixabay_cat_001316.jpg,Jesse,001,2021-07-19_15h38.48.912,Cat face experiment_750-999,2021.1.4,Win32,60.10699044
,,,,,,p,1.0003,0,171,171,171,1,171,images/pixabay_cat_001047.jpg,images/pixabay_cat_001317.jpg,Jesse,001,2021-07-19_15h38.48.912,Cat face experiment_750-999,2021.1.4,Win32,60.10699044
,,,,,,p,0.7359,0,172,172,172,1,172,images/pixabay_cat_001048.jpg,images/pixabay_cat_001318.jpg,Jesse,001,2021-07-19_15h38.48.912,Cat face experiment_750-999,2021.1.4,Win32,60.10699044
,,,,,,p,1.0019,0,173,173,173,1,173,images/pixabay_cat_001049.jpg,images/pixabay_cat_001319.jpg,Jesse,001,2021-07-19_15h38.48.912,Cat face experiment_750-999,2021.1.4,Win32,60.10699044
,,,,,,p,1.3602,0,174,174,174,1,174,images/pixabay_cat_001050.jpg,images/pixabay_cat_001320.jpg,Jesse,001,2021-07-19_15h38.48.912,Cat face experiment_750-999,2021.1.4,Win32,60.10699044
,,,,,,q,0.8779,0,175,175,175,1,175,images/pixabay_cat_001051.jpg,images/pixabay_cat_001321.jpg,Jesse,001,2021-07-19_15h38.48.912,Cat face experiment_750-999,2021.1.4,Win32,60.10699044
,,,,,,p,0.7802,0,176,176,176,1,176,images/pixabay_cat_001052.jpg,images/pixabay_cat_001322.jpg,Jesse,001,2021-07-19_15h38.48.912,Cat face experiment_750-999,2021.1.4,Win32,60.10699044
,,,,,,p,0.9794,0,177,177,177,1,177,images/pixabay_cat_001053.jpg,images/pixabay_cat_001324.jpg,Jesse,001,2021-07-19_15h38.48.912,Cat face experiment_750-999,2021.1.4,Win32,60.10699044
,,,,,,p,1.0104,0,178,178,178,1,178,images/pixabay_cat_001054.jpg,images/pixabay_cat_001325.jpg,Jesse,001,2021-07-19_15h38.48.912,Cat face experiment_750-999,2021.1.4,Win32,60.10699044
,,,,,,q,1.0737,0,179,179,179,1,179,images/pixabay_cat_001056.jpg,images/pixabay_cat_001326.jpg,Jesse,001,2021-07-19_15h38.48.912,Cat face experiment_750-999,2021.1.4,Win32,60.10699044
,,,,,,p,0.6932,0,180,180,180,1,180,images/pixabay_cat_001057.jpg,images/pixabay_cat_001327.jpg,Jesse,001,2021-07-19_15h38.48.912,Cat face experiment_750-999,2021.1.4,Win32,60.10699044
,,,,,,q,1.4016,0,181,181,181,1,181,images/pixabay_cat_001058.jpg,images/pixabay_cat_001328.jpg,Jesse,001,2021-07-19_15h38.48.912,Cat face experiment_750-999,2021.1.4,Win32,60.10699044
,,,,,,p,0.7861,0,182,182,182,1,182,images/pixabay_cat_001059.jpg,images/pixabay_cat_001329.jpg,Jesse,001,2021-07-19_15h38.48.912,Cat face experiment_750-999,2021.1.4,Win32,60.10699044
,,,,,,q,1.117,0,183,183,183,1,183,images/pixabay_cat_001060.jpg,images/pixabay_cat_001330.jpg,Jesse,001,2021-07-19_15h38.48.912,Cat face experiment_750-999,2021.1.4,Win32,60.10699044
,,,,,,p,0.785,0,184,184,184,1,184,images/pixabay_cat_001061.jpg,images/pixabay_cat_001331.jpg,Jesse,001,2021-07-19_15h38.48.912,Cat face experiment_750-999,2021.1.4,Win32,60.10699044
,,,,,,q,0.8527,0,185,185,185,1,185,images/pixabay_cat_001062.jpg,images/pixabay_cat_001332.jpg,Jesse,001,2021-07-19_15h38.48.912,Cat face experiment_750-999,2021.1.4,Win32,60.10699044
,,,,,,p,1.067,0,186,186,186,1,186,images/pixabay_cat_001063.jpg,images/pixabay_cat_001333.jpg,Jesse,001,2021-07-19_15h38.48.912,Cat face experiment_750-999,2021.1.4,Win32,60.10699044
,,,,,,p,0.9812,0,187,187,187,1,187,images/pixabay_cat_001064.jpg,images/pixabay_cat_001334.jpg,Jesse,001,2021-07-19_15h38.48.912,Cat face experiment_750-999,2021.1.4,Win32,60.10699044
,,,,,,q,1.2098,0,188,188,188,1,188,images/pixabay_cat_001065.jpg,images/pixabay_cat_001335.jpg,Jesse,001,2021-07-19_15h38.48.912,Cat face experiment_750-999,2021.1.4,Win32,60.10699044
,,,,,,q,0.8936,0,189,189,189,1,189,images/pixabay_cat_001066.jpg,images/pixabay_cat_001336.jpg,Jesse,001,2021-07-19_15h38.48.912,Cat face experiment_750-999,2021.1.4,Win32,60.10699044
,,,,,,p,0.779,0,190,190,190,1,190,images/pixabay_cat_001067.jpg,images/pixabay_cat_001337.jpg,Jesse,001,2021-07-19_15h38.48.912,Cat face experiment_750-999,2021.1.4,Win32,60.10699044
,,,,,,q,0.83,0,191,191,191,1,191,images/pixabay_cat_001068.jpg,images/pixabay_cat_001338.jpg,Jesse,001,2021-07-19_15h38.48.912,Cat face experiment_750-999,2021.1.4,Win32,60.10699044
,,,,,,p,0.8333,0,192,192,192,1,192,images/pixabay_cat_001069.jpg,images/pixabay_cat_001339.jpg,Jesse,001,2021-07-19_15h38.48.912,Cat face experiment_750-999,2021.1.4,Win32,60.10699044
,,,,,,q,0.8479,0,193,193,193,1,193,images/pixabay_cat_001070.jpg,images/pixabay_cat_001340.jpg,Jesse,001,2021-07-19_15h38.48.912,Cat face experiment_750-999,2021.1.4,Win32,60.10699044
,,,,,,q,1.0782,0,194,194,194,1,194,images/pixabay_cat_001071.jpg,images/pixabay_cat_001341.jpg,Jesse,001,2021-07-19_15h38.48.912,Cat face experiment_750-999,2021.1.4,Win32,60.10699044
,,,,,,q,0.9936,0,195,195,195,1,195,images/pixabay_cat_001072.jpg,images/pixabay_cat_001343.jpg,Jesse,001,2021-07-19_15h38.48.912,Cat face experiment_750-999,2021.1.4,Win32,60.10699044
,,,,,,q,1.107,0,196,196,196,1,196,images/pixabay_cat_001073.jpg,images/pixabay_cat_001344.jpg,Jesse,001,2021-07-19_15h38.48.912,Cat face experiment_750-999,2021.1.4,Win32,60.10699044
,,,,,,p,0.8747,0,197,197,197,1,197,images/pixabay_cat_001074.jpg,images/pixabay_cat_001345.jpg,Jesse,001,2021-07-19_15h38.48.912,Cat face experiment_750-999,2021.1.4,Win32,60.10699044
,,,,,,p,0.7608,0,198,198,198,1,198,images/pixabay_cat_001075.jpg,images/pixabay_cat_001346.jpg,Jesse,001,2021-07-19_15h38.48.912,Cat face experiment_750-999,2021.1.4,Win32,60.10699044
,,,,,,p,0.6664,0,199,199,199,1,199,images/pixabay_cat_001076.jpg,images/pixabay_cat_001347.jpg,Jesse,001,2021-07-19_15h38.48.912,Cat face experiment_750-999,2021.1.4,Win32,60.10699044
,,,,,,p,0.7025,0,200,200,200,1,200,images/pixabay_cat_001077.jpg,images/pixabay_cat_001349.jpg,Jesse,001,2021-07-19_15h38.48.912,Cat face experiment_750-999,2021.1.4,Win32,60.10699044
,,,,,,p,0.7544,0,201,201,201,1,201,images/pixabay_cat_001078.jpg,images/pixabay_cat_001350.jpg,Jesse,001,2021-07-19_15h38.48.912,Cat face experiment_750-999,2021.1.4,Win32,60.10699044
,,,,,,p,1.0353,0,202,202,202,1,202,images/pixabay_cat_001079.jpg,images/pixabay_cat_001351.jpg,Jesse,001,2021-07-19_15h38.48.912,Cat face experiment_750-999,2021.1.4,Win32,60.10699044
,,,,,,q,0.8196,0,203,203,203,1,203,images/pixabay_cat_001082.jpg,images/pixabay_cat_001352.jpg,Jesse,001,2021-07-19_15h38.48.912,Cat face experiment_750-999,2021.1.4,Win32,60.10699044
,,,,,,p,0.7718,0,204,204,204,1,204,images/pixabay_cat_001083.jpg,images/pixabay_cat_001353.jpg,Jesse,001,2021-07-19_15h38.48.912,Cat face experiment_750-999,2021.1.4,Win32,60.10699044
,,,,,,q,0.921,0,205,205,205,1,205,images/pixabay_cat_001085.jpg,images/pixabay_cat_001354.jpg,Jesse,001,2021-07-19_15h38.48.912,Cat face experiment_750-999,2021.1.4,Win32,60.10699044
,,,,,,p,0.7893,0,206,206,206,1,206,images/pixabay_cat_001086.jpg,images/pixabay_cat_001355.jpg,Jesse,001,2021-07-19_15h38.48.912,Cat face experiment_750-999,2021.1.4,Win32,60.10699044
,,,,,,q,0.6772,0,207,207,207,1,207,images/pixabay_cat_001087.jpg,images/pixabay_cat_001356.jpg,Jesse,001,2021-07-19_15h38.48.912,Cat face experiment_750-999,2021.1.4,Win32,60.10699044
,,,,,,p,0.7624,0,208,208,208,1,208,images/pixabay_cat_001088.jpg,images/pixabay_cat_001357.jpg,Jesse,001,2021-07-19_15h38.48.912,Cat face experiment_750-999,2021.1.4,Win32,60.10699044
,,,,,,p,0.7977,0,209,209,209,1,209,images/pixabay_cat_001089.jpg,images/pixabay_cat_001358.jpg,Jesse,001,2021-07-19_15h38.48.912,Cat face experiment_750-999,2021.1.4,Win32,60.10699044
,,,,,,q,0.8482,0,210,210,210,1,210,images/pixabay_cat_001090.jpg,images/pixabay_cat_001360.jpg,Jesse,001,2021-07-19_15h38.48.912,Cat face experiment_750-999,2021.1.4,Win32,60.10699044
,,,,,,p,0.7514,0,211,211,211,1,211,images/pixabay_cat_001091.jpg,images/pixabay_cat_001361.jpg,Jesse,001,2021-07-19_15h38.48.912,Cat face experiment_750-999,2021.1.4,Win32,60.10699044
,,,,,,q,0.7045,0,212,212,212,1,212,images/pixabay_cat_001092.jpg,images/pixabay_cat_001362.jpg,Jesse,001,2021-07-19_15h38.48.912,Cat face experiment_750-999,2021.1.4,Win32,60.10699044
,,,,,,p,0.6999,0,213,213,213,1,213,images/pixabay_cat_001094.jpg,images/pixabay_cat_001363.jpg,Jesse,001,2021-07-19_15h38.48.912,Cat face experiment_750-999,2021.1.4,Win32,60.10699044
,,,,,,p,0.7288,0,214,214,214,1,214,images/pixabay_cat_001095.jpg,images/pixabay_cat_001364.jpg,Jesse,001,2021-07-19_15h38.48.912,Cat face experiment_750-999,2021.1.4,Win32,60.10699044
,,,,,,p,0.6831,0,215,215,215,1,215,images/pixabay_cat_001096.jpg,images/pixabay_cat_001366.jpg,Jesse,001,2021-07-19_15h38.48.912,Cat face experiment_750-999,2021.1.4,Win32,60.10699044
,,,,,,p,0.751,0,216,216,216,1,216,images/pixabay_cat_001097.jpg,images/pixabay_cat_001368.jpg,Jesse,001,2021-07-19_15h38.48.912,Cat face experiment_750-999,2021.1.4,Win32,60.10699044
,,,,,,p,1.0812,0,217,217,217,1,217,images/pixabay_cat_001100.jpg,images/pixabay_cat_001369.jpg,Jesse,001,2021-07-19_15h38.48.912,Cat face experiment_750-999,2021.1.4,Win32,60.10699044
,,,,,,q,1.1112,0,218,218,218,1,218,images/pixabay_cat_001101.jpg,images/pixabay_cat_001370.jpg,Jesse,001,2021-07-19_15h38.48.912,Cat face experiment_750-999,2021.1.4,Win32,60.10699044
,,,,,,p,0.6974,0,219,219,219,1,219,images/pixabay_cat_001102.jpg,images/pixabay_cat_001372.jpg,Jesse,001,2021-07-19_15h38.48.912,Cat face experiment_750-999,2021.1.4,Win32,60.10699044
,,,,,,q,0.75,0,220,220,220,1,220,images/pixabay_cat_001103.jpg,images/pixabay_cat_001373.jpg,Jesse,001,2021-07-19_15h38.48.912,Cat face experiment_750-999,2021.1.4,Win32,60.10699044
,,,,,,q,1.0311,0,221,221,221,1,221,images/pixabay_cat_001104.jpg,images/pixabay_cat_001374.jpg,Jesse,001,2021-07-19_15h38.48.912,Cat face experiment_750-999,2021.1.4,Win32,60.10699044
,,,,,,p,0.8833,0,222,222,222,1,222,images/pixabay_cat_001106.jpg,images/pixabay_cat_001375.jpg,Jesse,001,2021-07-19_15h38.48.912,Cat face experiment_750-999,2021.1.4,Win32,60.10699044
,,,,,,q,0.7183,0,223,223,223,1,223,images/pixabay_cat_001107.jpg,images/pixabay_cat_001376.jpg,Jesse,001,2021-07-19_15h38.48.912,Cat face experiment_750-999,2021.1.4,Win32,60.10699044
,,,,,,p,1.2297,0,224,224,224,1,224,images/pixabay_cat_001108.jpg,images/pixabay_cat_001377.jpg,Jesse,001,2021-07-19_15h38.48.912,Cat face experiment_750-999,2021.1.4,Win32,60.10699044
,,,,,,q,0.8796,0,225,225,225,1,225,images/pixabay_cat_001109.jpg,images/pixabay_cat_001378.jpg,Jesse,001,2021-07-19_15h38.48.912,Cat face experiment_750-999,2021.1.4,Win32,60.10699044
,,,,,,p,1.5018,0,226,226,226,1,226,images/pixabay_cat_001110.jpg,images/pixabay_cat_001379.jpg,Jesse,001,2021-07-19_15h38.48.912,Cat face experiment_750-999,2021.1.4,Win32,60.10699044
,,,,,,p,0.885,0,227,227,227,1,227,images/pixabay_cat_001111.jpg,images/pixabay_cat_001380.jpg,Jesse,001,2021-07-19_15h38.48.912,Cat face experiment_750-999,2021.1.4,Win32,60.10699044
,,,,,,p,0.9028,0,228,228,228,1,228,images/pixabay_cat_001112.jpg,images/pixabay_cat_001381.jpg,Jesse,001,2021-07-19_15h38.48.912,Cat face experiment_750-999,2021.1.4,Win32,60.10699044
,,,,,,p,0.7055,0,229,229,229,1,229,images/pixabay_cat_001113.jpg,images/pixabay_cat_001382.jpg,Jesse,001,2021-07-19_15h38.48.912,Cat face experiment_750-999,2021.1.4,Win32,60.10699044
,,,,,,q,0.9544,0,230,230,230,1,230,images/pixabay_cat_001114.jpg,images/pixabay_cat_001383.jpg,Jesse,001,2021-07-19_15h38.48.912,Cat face experiment_750-999,2021.1.4,Win32,60.10699044
,,,,,,q,0.9044,0,231,231,231,1,231,images/pixabay_cat_001115.jpg,images/pixabay_cat_001384.jpg,Jesse,001,2021-07-19_15h38.48.912,Cat face experiment_750-999,2021.1.4,Win32,60.10699044
,,,,,,p,0.8059,0,232,232,232,1,232,images/pixabay_cat_001116.jpg,images/pixabay_cat_001386.jpg,Jesse,001,2021-07-19_15h38.48.912,Cat face experiment_750-999,2021.1.4,Win32,60.10699044
,,,,,,p,0.7752,0,233,233,233,1,233,images/pixabay_cat_001117.jpg,images/pixabay_cat_001387.jpg,Jesse,001,2021-07-19_15h38.48.912,Cat face experiment_750-999,2021.1.4,Win32,60.10699044
,,,,,,q,0.8106,0,234,234,234,1,234,images/pixabay_cat_001118.jpg,images/pixabay_cat_001388.jpg,Jesse,001,2021-07-19_15h38.48.912,Cat face experiment_750-999,2021.1.4,Win32,60.10699044
,,,,,,p,6.0047,0,235,235,235,1,235,images/pixabay_cat_001119.jpg,images/pixabay_cat_001389.jpg,Jesse,001,2021-07-19_15h38.48.912,Cat face experiment_750-999,2021.1.4,Win32,60.10699044
,,,,,,p,0.9001,0,236,236,236,1,236,images/pixabay_cat_001120.jpg,images/pixabay_cat_001391.jpg,Jesse,001,2021-07-19_15h38.48.912,Cat face experiment_750-999,2021.1.4,Win32,60.10699044
,,,,,,p,0.6843,0,237,237,237,1,237,images/pixabay_cat_001121.jpg,images/pixabay_cat_001392.jpg,Jesse,001,2021-07-19_15h38.48.912,Cat face experiment_750-999,2021.1.4,Win32,60.10699044
,,,,,,p,0.917,0,238,238,238,1,238,images/pixabay_cat_001122.jpg,images/pixabay_cat_001393.jpg,Jesse,001,2021-07-19_15h38.48.912,Cat face experiment_750-999,2021.1.4,Win32,60.10699044
,,,,,,p,0.769,0,239,239,239,1,239,images/pixabay_cat_001123.jpg,images/pixabay_cat_001394.jpg,Jesse,001,2021-07-19_15h38.48.912,Cat face experiment_750-999,2021.1.4,Win32,60.10699044
,,,,,,q,0.9837,0,240,240,240,1,240,images/pixabay_cat_001124.jpg,images/pixabay_cat_001395.jpg,Jesse,001,2021-07-19_15h38.48.912,Cat face experiment_750-999,2021.1.4,Win32,60.10699044
,,,,,,p,1.1458,0,241,241,241,1,241,images/pixabay_cat_001125.jpg,images/pixabay_cat_001396.jpg,Jesse,001,2021-07-19_15h38.48.912,Cat face experiment_750-999,2021.1.4,Win32,60.10699044
,,,,,,q,0.9115,0,242,242,242,1,242,images/pixabay_cat_001126.jpg,images/pixabay_cat_001397.jpg,Jesse,001,2021-07-19_15h38.48.912,Cat face experiment_750-999,2021.1.4,Win32,60.10699044
,,,,,,p,0.6664,0,243,243,243,1,243,images/pixabay_cat_001127.jpg,images/pixabay_cat_001398.jpg,Jesse,001,2021-07-19_15h38.48.912,Cat face experiment_750-999,2021.1.4,Win32,60.10699044
,,,,,,q,0.7674,0,244,244,244,1,244,images/pixabay_cat_001128.jpg,images/pixabay_cat_001399.jpg,Jesse,001,2021-07-19_15h38.48.912,Cat face experiment_750-999,2021.1.4,Win32,60.10699044
,,,,,,p,0.8177,0,245,245,245,1,245,images/pixabay_cat_001129.jpg,images/pixabay_cat_001400.jpg,Jesse,001,2021-07-19_15h38.48.912,Cat face experiment_750-999,2021.1.4,Win32,60.10699044
,,,,,,p,1.0001,0,246,246,246,1,246,images/pixabay_cat_001130.jpg,images/pixabay_cat_001401.jpg,Jesse,001,2021-07-19_15h38.48.912,Cat face experiment_750-999,2021.1.4,Win32,60.10699044
,,,,,,q,0.7835,0,247,247,247,1,247,images/pixabay_cat_001131.jpg,images/pixabay_cat_001402.jpg,Jesse,001,2021-07-19_15h38.48.912,Cat face experiment_750-999,2021.1.4,Win32,60.10699044
,,,,,,p,0.7684,0,248,248,248,1,248,images/pixabay_cat_001132.jpg,images/pixabay_cat_001403.jpg,Jesse,001,2021-07-19_15h38.48.912,Cat face experiment_750-999,2021.1.4,Win32,60.10699044
,,,,,,q,0.8201,0,249,249,249,1,249,images/pixabay_cat_001133.jpg,images/pixabay_cat_001404.jpg,Jesse,001,2021-07-19_15h38.48.912,Cat face experiment_750-999,2021.1.4,Win32,60.10699044
