key_resp.keys,key_resp.rt,key_resp_2.keys,key_resp_2.rt,key_resp_3.keys,key_resp_3.rt,key_resp_4.keys,key_resp_4.rt,trials.thisRepN,trials.thisTrialN,trials.thisN,trials.thisIndex,trials.ran,trail_nums,img1,img2,participant,session,date,expName,psychopyVersion,OS,frameRate
space,1.902535,space,2.9116,space,3.1743,p,3.329765,0,0,0,0,1,0,images/flickr_cat_000002.jpg,images/flickr_cat_000285.jpg,Jesse,001,2021-06-04_13h47.30.601,Cat face experiment_0-249,2021.1.4,MacIntel,60.0024001
,,,,,,q,1.615015,0,1,1,1,1,1,images/flickr_cat_000003.jpg,images/flickr_cat_000286.jpg,Jesse,001,2021-06-04_13h47.30.601,Cat face experiment_0-249,2021.1.4,MacIntel,60.0024001
,,,,,,q,1.89501,0,2,2,2,1,2,images/flickr_cat_000004.jpg,images/flickr_cat_000288.jpg,Jesse,001,2021-06-04_13h47.30.601,Cat face experiment_0-249,2021.1.4,MacIntel,60.0024001
,,,,,,p,2.352085,0,3,3,3,1,3,images/flickr_cat_000005.jpg,images/flickr_cat_000289.jpg,Jesse,001,2021-06-04_13h47.30.601,Cat face experiment_0-249,2021.1.4,MacIntel,60.0024001
,,,,,,p,1.737375,0,4,4,4,1,4,images/flickr_cat_000006.jpg,images/flickr_cat_000290.jpg,Jesse,001,2021-06-04_13h47.30.601,Cat face experiment_0-249,2021.1.4,MacIntel,60.0024001
,,,,,,q,2.520155,0,5,5,5,1,5,images/flickr_cat_000007.jpg,images/flickr_cat_000291.jpg,Jesse,001,2021-06-04_13h47.30.601,Cat face experiment_0-249,2021.1.4,MacIntel,60.0024001
,,,,,,p,1.07722,0,6,6,6,1,6,images/flickr_cat_000009.jpg,images/flickr_cat_000293.jpg,Jesse,001,2021-06-04_13h47.30.601,Cat face experiment_0-249,2021.1.4,MacIntel,60.0024001
,,,,,,q,1.61437,0,7,7,7,1,7,images/flickr_cat_000010.jpg,images/flickr_cat_000294.jpg,Jesse,001,2021-06-04_13h47.30.601,Cat face experiment_0-249,2021.1.4,MacIntel,60.0024001
,,,,,,p,1.944455,0,8,8,8,1,8,images/flickr_cat_000012.jpg,images/flickr_cat_000295.jpg,Jesse,001,2021-06-04_13h47.30.601,Cat face experiment_0-249,2021.1.4,MacIntel,60.0024001
,,,,,,q,1.20311,0,9,9,9,1,9,images/flickr_cat_000013.jpg,images/flickr_cat_000296.jpg,Jesse,001,2021-06-04_13h47.30.601,Cat face experiment_0-249,2021.1.4,MacIntel,60.0024001
,,,,,,q,1.346335,0,10,10,10,1,10,images/flickr_cat_000014.jpg,images/flickr_cat_000297.jpg,Jesse,001,2021-06-04_13h47.30.601,Cat face experiment_0-249,2021.1.4,MacIntel,60.0024001
,,,,,,q,1.36815,0,11,11,11,1,11,images/flickr_cat_000015.jpg,images/flickr_cat_000298.jpg,Jesse,001,2021-06-04_13h47.30.601,Cat face experiment_0-249,2021.1.4,MacIntel,60.0024001
,,,,,,p,1.227575,0,12,12,12,1,12,images/flickr_cat_000017.jpg,images/flickr_cat_000299.jpg,Jesse,001,2021-06-04_13h47.30.601,Cat face experiment_0-249,2021.1.4,MacIntel,60.0024001
,,,,,,q,1.11939,0,13,13,13,1,13,images/flickr_cat_000018.jpg,images/flickr_cat_000300.jpg,Jesse,001,2021-06-04_13h47.30.601,Cat face experiment_0-249,2021.1.4,MacIntel,60.0024001
,,,,,,p,1.751885,0,14,14,14,1,14,images/flickr_cat_000019.jpg,images/flickr_cat_000301.jpg,Jesse,001,2021-06-04_13h47.30.601,Cat face experiment_0-249,2021.1.4,MacIntel,60.0024001
,,,,,,p,1.344075,0,15,15,15,1,15,images/flickr_cat_000020.jpg,images/flickr_cat_000302.jpg,Jesse,001,2021-06-04_13h47.30.601,Cat face experiment_0-249,2021.1.4,MacIntel,60.0024001
,,,,,,q,1.485595,0,16,16,16,1,16,images/flickr_cat_000021.jpg,images/flickr_cat_000303.jpg,Jesse,001,2021-06-04_13h47.30.601,Cat face experiment_0-249,2021.1.4,MacIntel,60.0024001
,,,,,,q,1.367985,0,17,17,17,1,17,images/flickr_cat_000022.jpg,images/flickr_cat_000304.jpg,Jesse,001,2021-06-04_13h47.30.601,Cat face experiment_0-249,2021.1.4,MacIntel,60.0024001
,,,,,,p,2.267055,0,18,18,18,1,18,images/flickr_cat_000023.jpg,images/flickr_cat_000305.jpg,Jesse,001,2021-06-04_13h47.30.601,Cat face experiment_0-249,2021.1.4,MacIntel,60.0024001
,,,,,,q,12.605605,0,19,19,19,1,19,images/flickr_cat_000024.jpg,images/flickr_cat_000306.jpg,Jesse,001,2021-06-04_13h47.30.601,Cat face experiment_0-249,2021.1.4,MacIntel,60.0024001
,,,,,,q,1.031265,0,20,20,20,1,20,images/flickr_cat_000025.jpg,images/flickr_cat_000307.jpg,Jesse,001,2021-06-04_13h47.30.601,Cat face experiment_0-249,2021.1.4,MacIntel,60.0024001
,,,,,,q,1.41953,0,21,21,21,1,21,images/flickr_cat_000026.jpg,images/flickr_cat_000308.jpg,Jesse,001,2021-06-04_13h47.30.601,Cat face experiment_0-249,2021.1.4,MacIntel,60.0024001
,,,,,,p,1.936515,0,22,22,22,1,22,images/flickr_cat_000027.jpg,images/flickr_cat_000309.jpg,Jesse,001,2021-06-04_13h47.30.601,Cat face experiment_0-249,2021.1.4,MacIntel,60.0024001
,,,,,,p,1.448265,0,23,23,23,1,23,images/flickr_cat_000028.jpg,images/flickr_cat_000310.jpg,Jesse,001,2021-06-04_13h47.30.601,Cat face experiment_0-249,2021.1.4,MacIntel,60.0024001
,,,,,,p,1.975125,0,24,24,24,1,24,images/flickr_cat_000029.jpg,images/flickr_cat_000312.jpg,Jesse,001,2021-06-04_13h47.30.601,Cat face experiment_0-249,2021.1.4,MacIntel,60.0024001
,,,,,,p,1.220725,0,25,25,25,1,25,images/flickr_cat_000030.jpg,images/flickr_cat_000313.jpg,Jesse,001,2021-06-04_13h47.30.601,Cat face experiment_0-249,2021.1.4,MacIntel,60.0024001
,,,,,,q,1.41246,0,26,26,26,1,26,images/flickr_cat_000031.jpg,images/flickr_cat_000315.jpg,Jesse,001,2021-06-04_13h47.30.601,Cat face experiment_0-249,2021.1.4,MacIntel,60.0024001
,,,,,,q,1.001905,0,27,27,27,1,27,images/flickr_cat_000032.jpg,images/flickr_cat_000316.jpg,Jesse,001,2021-06-04_13h47.30.601,Cat face experiment_0-249,2021.1.4,MacIntel,60.0024001
,,,,,,q,1.41475,0,28,28,28,1,28,images/flickr_cat_000033.jpg,images/flickr_cat_000317.jpg,Jesse,001,2021-06-04_13h47.30.601,Cat face experiment_0-249,2021.1.4,MacIntel,60.0024001
,,,,,,p,1.06939,0,29,29,29,1,29,images/flickr_cat_000034.jpg,images/flickr_cat_000318.jpg,Jesse,001,2021-06-04_13h47.30.601,Cat face experiment_0-249,2021.1.4,MacIntel,60.0024001
,,,,,,p,1.39675,0,30,30,30,1,30,images/flickr_cat_000035.jpg,images/flickr_cat_000319.jpg,Jesse,001,2021-06-04_13h47.30.601,Cat face experiment_0-249,2021.1.4,MacIntel,60.0024001
,,,,,,p,1.411225,0,31,31,31,1,31,images/flickr_cat_000036.jpg,images/flickr_cat_000321.jpg,Jesse,001,2021-06-04_13h47.30.601,Cat face experiment_0-249,2021.1.4,MacIntel,60.0024001
,,,,,,q,2.66709,0,32,32,32,1,32,images/flickr_cat_000037.jpg,images/flickr_cat_000322.jpg,Jesse,001,2021-06-04_13h47.30.601,Cat face experiment_0-249,2021.1.4,MacIntel,60.0024001
,,,,,,p,1.979295,0,33,33,33,1,33,images/flickr_cat_000038.jpg,images/flickr_cat_000323.jpg,Jesse,001,2021-06-04_13h47.30.601,Cat face experiment_0-249,2021.1.4,MacIntel,60.0024001
,,,,,,p,1.21941,0,34,34,34,1,34,images/flickr_cat_000039.jpg,images/flickr_cat_000324.jpg,Jesse,001,2021-06-04_13h47.30.601,Cat face experiment_0-249,2021.1.4,MacIntel,60.0024001
,,,,,,p,1.245345,0,35,35,35,1,35,images/flickr_cat_000040.jpg,images/flickr_cat_000325.jpg,Jesse,001,2021-06-04_13h47.30.601,Cat face experiment_0-249,2021.1.4,MacIntel,60.0024001
,,,,,,p,1.9371,0,36,36,36,1,36,images/flickr_cat_000041.jpg,images/flickr_cat_000326.jpg,Jesse,001,2021-06-04_13h47.30.601,Cat face experiment_0-249,2021.1.4,MacIntel,60.0024001
,,,,,,p,2.12716,0,37,37,37,1,37,images/flickr_cat_000042.jpg,images/flickr_cat_000327.jpg,Jesse,001,2021-06-04_13h47.30.601,Cat face experiment_0-249,2021.1.4,MacIntel,60.0024001
,,,,,,q,1.30303,0,38,38,38,1,38,images/flickr_cat_000043.jpg,images/flickr_cat_000328.jpg,Jesse,001,2021-06-04_13h47.30.601,Cat face experiment_0-249,2021.1.4,MacIntel,60.0024001
,,,,,,p,1.35294,0,39,39,39,1,39,images/flickr_cat_000044.jpg,images/flickr_cat_000329.jpg,Jesse,001,2021-06-04_13h47.30.601,Cat face experiment_0-249,2021.1.4,MacIntel,60.0024001
,,,,,,q,1.186825,0,40,40,40,1,40,images/flickr_cat_000045.jpg,images/flickr_cat_000330.jpg,Jesse,001,2021-06-04_13h47.30.601,Cat face experiment_0-249,2021.1.4,MacIntel,60.0024001
,,,,,,q,1.70396,0,41,41,41,1,41,images/flickr_cat_000046.jpg,images/flickr_cat_000331.jpg,Jesse,001,2021-06-04_13h47.30.601,Cat face experiment_0-249,2021.1.4,MacIntel,60.0024001
,,,,,,p,1.809755,0,42,42,42,1,42,images/flickr_cat_000047.jpg,images/flickr_cat_000332.jpg,Jesse,001,2021-06-04_13h47.30.601,Cat face experiment_0-249,2021.1.4,MacIntel,60.0024001
,,,,,,q,1.76317,0,43,43,43,1,43,images/flickr_cat_000048.jpg,images/flickr_cat_000333.jpg,Jesse,001,2021-06-04_13h47.30.601,Cat face experiment_0-249,2021.1.4,MacIntel,60.0024001
,,,,,,q,1.91145,0,44,44,44,1,44,images/flickr_cat_000049.jpg,images/flickr_cat_000334.jpg,Jesse,001,2021-06-04_13h47.30.601,Cat face experiment_0-249,2021.1.4,MacIntel,60.0024001
,,,,,,q,1.95295,0,45,45,45,1,45,images/flickr_cat_000050.jpg,images/flickr_cat_000335.jpg,Jesse,001,2021-06-04_13h47.30.601,Cat face experiment_0-249,2021.1.4,MacIntel,60.0024001
,,,,,,q,1.345025,0,46,46,46,1,46,images/flickr_cat_000051.jpg,images/flickr_cat_000336.jpg,Jesse,001,2021-06-04_13h47.30.601,Cat face experiment_0-249,2021.1.4,MacIntel,60.0024001
,,,,,,p,1.479505,0,47,47,47,1,47,images/flickr_cat_000052.jpg,images/flickr_cat_000337.jpg,Jesse,001,2021-06-04_13h47.30.601,Cat face experiment_0-249,2021.1.4,MacIntel,60.0024001
,,,,,,p,2.069165,0,48,48,48,1,48,images/flickr_cat_000053.jpg,images/flickr_cat_000338.jpg,Jesse,001,2021-06-04_13h47.30.601,Cat face experiment_0-249,2021.1.4,MacIntel,60.0024001
,,,,,,p,1.85436,0,49,49,49,1,49,images/flickr_cat_000054.jpg,images/flickr_cat_000339.jpg,Jesse,001,2021-06-04_13h47.30.601,Cat face experiment_0-249,2021.1.4,MacIntel,60.0024001
,,,,,,p,1.569905,0,50,50,50,1,50,images/flickr_cat_000055.jpg,images/flickr_cat_000340.jpg,Jesse,001,2021-06-04_13h47.30.601,Cat face experiment_0-249,2021.1.4,MacIntel,60.0024001
,,,,,,p,1.467695,0,51,51,51,1,51,images/flickr_cat_000057.jpg,images/flickr_cat_000342.jpg,Jesse,001,2021-06-04_13h47.30.601,Cat face experiment_0-249,2021.1.4,MacIntel,60.0024001
,,,,,,p,1.598965,0,52,52,52,1,52,images/flickr_cat_000058.jpg,images/flickr_cat_000343.jpg,Jesse,001,2021-06-04_13h47.30.601,Cat face experiment_0-249,2021.1.4,MacIntel,60.0024001
,,,,,,q,3.80057,0,53,53,53,1,53,images/flickr_cat_000059.jpg,images/flickr_cat_000344.jpg,Jesse,001,2021-06-04_13h47.30.601,Cat face experiment_0-249,2021.1.4,MacIntel,60.0024001
,,,,,,p,1.30238,0,54,54,54,1,54,images/flickr_cat_000060.jpg,images/flickr_cat_000345.jpg,Jesse,001,2021-06-04_13h47.30.601,Cat face experiment_0-249,2021.1.4,MacIntel,60.0024001
,,,,,,p,1.26911,0,55,55,55,1,55,images/flickr_cat_000061.jpg,images/flickr_cat_000346.jpg,Jesse,001,2021-06-04_13h47.30.601,Cat face experiment_0-249,2021.1.4,MacIntel,60.0024001
,,,,,,q,1.37527,0,56,56,56,1,56,images/flickr_cat_000062.jpg,images/flickr_cat_000347.jpg,Jesse,001,2021-06-04_13h47.30.601,Cat face experiment_0-249,2021.1.4,MacIntel,60.0024001
,,,,,,p,1.17637,0,57,57,57,1,57,images/flickr_cat_000063.jpg,images/flickr_cat_000348.jpg,Jesse,001,2021-06-04_13h47.30.601,Cat face experiment_0-249,2021.1.4,MacIntel,60.0024001
,,,,,,p,1.43601,0,58,58,58,1,58,images/flickr_cat_000064.jpg,images/flickr_cat_000349.jpg,Jesse,001,2021-06-04_13h47.30.601,Cat face experiment_0-249,2021.1.4,MacIntel,60.0024001
,,,,,,p,1.36054,0,59,59,59,1,59,images/flickr_cat_000065.jpg,images/flickr_cat_000352.jpg,Jesse,001,2021-06-04_13h47.30.601,Cat face experiment_0-249,2021.1.4,MacIntel,60.0024001
,,,,,,p,1.752505,0,60,60,60,1,60,images/flickr_cat_000066.jpg,images/flickr_cat_000353.jpg,Jesse,001,2021-06-04_13h47.30.601,Cat face experiment_0-249,2021.1.4,MacIntel,60.0024001
,,,,,,q,1.155105,0,61,61,61,1,61,images/flickr_cat_000067.jpg,images/flickr_cat_000354.jpg,Jesse,001,2021-06-04_13h47.30.601,Cat face experiment_0-249,2021.1.4,MacIntel,60.0024001
,,,,,,q,1.236495,0,62,62,62,1,62,images/flickr_cat_000068.jpg,images/flickr_cat_000355.jpg,Jesse,001,2021-06-04_13h47.30.601,Cat face experiment_0-249,2021.1.4,MacIntel,60.0024001
,,,,,,p,1.187405,0,63,63,63,1,63,images/flickr_cat_000069.jpg,images/flickr_cat_000356.jpg,Jesse,001,2021-06-04_13h47.30.601,Cat face experiment_0-249,2021.1.4,MacIntel,60.0024001
,,,,,,q,1.89439,0,64,64,64,1,64,images/flickr_cat_000070.jpg,images/flickr_cat_000357.jpg,Jesse,001,2021-06-04_13h47.30.601,Cat face experiment_0-249,2021.1.4,MacIntel,60.0024001
,,,,,,q,1.17032,0,65,65,65,1,65,images/flickr_cat_000071.jpg,images/flickr_cat_000358.jpg,Jesse,001,2021-06-04_13h47.30.601,Cat face experiment_0-249,2021.1.4,MacIntel,60.0024001
,,,,,,q,1.06949,0,66,66,66,1,66,images/flickr_cat_000072.jpg,images/flickr_cat_000359.jpg,Jesse,001,2021-06-04_13h47.30.601,Cat face experiment_0-249,2021.1.4,MacIntel,60.0024001
,,,,,,q,1.44547,0,67,67,67,1,67,images/flickr_cat_000073.jpg,images/flickr_cat_000360.jpg,Jesse,001,2021-06-04_13h47.30.601,Cat face experiment_0-249,2021.1.4,MacIntel,60.0024001
,,,,,,p,1.152995,0,68,68,68,1,68,images/flickr_cat_000074.jpg,images/flickr_cat_000361.jpg,Jesse,001,2021-06-04_13h47.30.601,Cat face experiment_0-249,2021.1.4,MacIntel,60.0024001
,,,,,,p,1.85352,0,69,69,69,1,69,images/flickr_cat_000075.jpg,images/flickr_cat_000362.jpg,Jesse,001,2021-06-04_13h47.30.601,Cat face experiment_0-249,2021.1.4,MacIntel,60.0024001
,,,,,,q,1.18511,0,70,70,70,1,70,images/flickr_cat_000077.jpg,images/flickr_cat_000363.jpg,Jesse,001,2021-06-04_13h47.30.601,Cat face experiment_0-249,2021.1.4,MacIntel,60.0024001
,,,,,,q,1.368915,0,71,71,71,1,71,images/flickr_cat_000078.jpg,images/flickr_cat_000364.jpg,Jesse,001,2021-06-04_13h47.30.601,Cat face experiment_0-249,2021.1.4,MacIntel,60.0024001
,,,,,,q,1.085475,0,72,72,72,1,72,images/flickr_cat_000079.jpg,images/flickr_cat_000365.jpg,Jesse,001,2021-06-04_13h47.30.601,Cat face experiment_0-249,2021.1.4,MacIntel,60.0024001
,,,,,,p,1.354015,0,73,73,73,1,73,images/flickr_cat_000081.jpg,images/flickr_cat_000366.jpg,Jesse,001,2021-06-04_13h47.30.601,Cat face experiment_0-249,2021.1.4,MacIntel,60.0024001
,,,,,,q,2.21313,0,74,74,74,1,74,images/flickr_cat_000082.jpg,images/flickr_cat_000367.jpg,Jesse,001,2021-06-04_13h47.30.601,Cat face experiment_0-249,2021.1.4,MacIntel,60.0024001
,,,,,,q,1.61853,0,75,75,75,1,75,images/flickr_cat_000083.jpg,images/flickr_cat_000369.jpg,Jesse,001,2021-06-04_13h47.30.601,Cat face experiment_0-249,2021.1.4,MacIntel,60.0024001
,,,,,,q,1.52019,0,76,76,76,1,76,images/flickr_cat_000084.jpg,images/flickr_cat_000370.jpg,Jesse,001,2021-06-04_13h47.30.601,Cat face experiment_0-249,2021.1.4,MacIntel,60.0024001
,,,,,,q,1.935975,0,77,77,77,1,77,images/flickr_cat_000085.jpg,images/flickr_cat_000371.jpg,Jesse,001,2021-06-04_13h47.30.601,Cat face experiment_0-249,2021.1.4,MacIntel,60.0024001
,,,,,,q,1.27014,0,78,78,78,1,78,images/flickr_cat_000086.jpg,images/flickr_cat_000373.jpg,Jesse,001,2021-06-04_13h47.30.601,Cat face experiment_0-249,2021.1.4,MacIntel,60.0024001
,,,,,,q,2.49227,0,79,79,79,1,79,images/flickr_cat_000087.jpg,images/flickr_cat_000374.jpg,Jesse,001,2021-06-04_13h47.30.601,Cat face experiment_0-249,2021.1.4,MacIntel,60.0024001
,,,,,,p,2.469695,0,80,80,80,1,80,images/flickr_cat_000088.jpg,images/flickr_cat_000375.jpg,Jesse,001,2021-06-04_13h47.30.601,Cat face experiment_0-249,2021.1.4,MacIntel,60.0024001
,,,,,,p,1.869485,0,81,81,81,1,81,images/flickr_cat_000089.jpg,images/flickr_cat_000376.jpg,Jesse,001,2021-06-04_13h47.30.601,Cat face experiment_0-249,2021.1.4,MacIntel,60.0024001
,,,,,,q,1.344995,0,82,82,82,1,82,images/flickr_cat_000090.jpg,images/flickr_cat_000378.jpg,Jesse,001,2021-06-04_13h47.30.601,Cat face experiment_0-249,2021.1.4,MacIntel,60.0024001
,,,,,,p,1.1254,0,83,83,83,1,83,images/flickr_cat_000091.jpg,images/flickr_cat_000379.jpg,Jesse,001,2021-06-04_13h47.30.601,Cat face experiment_0-249,2021.1.4,MacIntel,60.0024001
,,,,,,p,1.702715,0,84,84,84,1,84,images/flickr_cat_000092.jpg,images/flickr_cat_000380.jpg,Jesse,001,2021-06-04_13h47.30.601,Cat face experiment_0-249,2021.1.4,MacIntel,60.0024001
,,,,,,p,1.703545,0,85,85,85,1,85,images/flickr_cat_000093.jpg,images/flickr_cat_000381.jpg,Jesse,001,2021-06-04_13h47.30.601,Cat face experiment_0-249,2021.1.4,MacIntel,60.0024001
,,,,,,q,0.869645,0,86,86,86,1,86,images/flickr_cat_000094.jpg,images/flickr_cat_000382.jpg,Jesse,001,2021-06-04_13h47.30.601,Cat face experiment_0-249,2021.1.4,MacIntel,60.0024001
,,,,,,p,1.04198,0,87,87,87,1,87,images/flickr_cat_000095.jpg,images/flickr_cat_000383.jpg,Jesse,001,2021-06-04_13h47.30.601,Cat face experiment_0-249,2021.1.4,MacIntel,60.0024001
,,,,,,q,1.403935,0,88,88,88,1,88,images/flickr_cat_000097.jpg,images/flickr_cat_000384.jpg,Jesse,001,2021-06-04_13h47.30.601,Cat face experiment_0-249,2021.1.4,MacIntel,60.0024001
,,,,,,p,1.270015,0,89,89,89,1,89,images/flickr_cat_000098.jpg,images/flickr_cat_000385.jpg,Jesse,001,2021-06-04_13h47.30.601,Cat face experiment_0-249,2021.1.4,MacIntel,60.0024001
,,,,,,p,1.07034,0,90,90,90,1,90,images/flickr_cat_000099.jpg,images/flickr_cat_000386.jpg,Jesse,001,2021-06-04_13h47.30.601,Cat face experiment_0-249,2021.1.4,MacIntel,60.0024001
,,,,,,q,2.153605,0,91,91,91,1,91,images/flickr_cat_000100.jpg,images/flickr_cat_000388.jpg,Jesse,001,2021-06-04_13h47.30.601,Cat face experiment_0-249,2021.1.4,MacIntel,60.0024001
,,,,,,q,2.019225,0,92,92,92,1,92,images/flickr_cat_000101.jpg,images/flickr_cat_000389.jpg,Jesse,001,2021-06-04_13h47.30.601,Cat face experiment_0-249,2021.1.4,MacIntel,60.0024001
,,,,,,p,1.070315,0,93,93,93,1,93,images/flickr_cat_000102.jpg,images/flickr_cat_000390.jpg,Jesse,001,2021-06-04_13h47.30.601,Cat face experiment_0-249,2021.1.4,MacIntel,60.0024001
,,,,,,q,3.337075,0,94,94,94,1,94,images/flickr_cat_000103.jpg,images/flickr_cat_000391.jpg,Jesse,001,2021-06-04_13h47.30.601,Cat face experiment_0-249,2021.1.4,MacIntel,60.0024001
,,,,,,q,1.65193,0,95,95,95,1,95,images/flickr_cat_000104.jpg,images/flickr_cat_000392.jpg,Jesse,001,2021-06-04_13h47.30.601,Cat face experiment_0-249,2021.1.4,MacIntel,60.0024001
,,,,,,q,1.670455,0,96,96,96,1,96,images/flickr_cat_000105.jpg,images/flickr_cat_000393.jpg,Jesse,001,2021-06-04_13h47.30.601,Cat face experiment_0-249,2021.1.4,MacIntel,60.0024001
,,,,,,q,1.770115,0,97,97,97,1,97,images/flickr_cat_000106.jpg,images/flickr_cat_000394.jpg,Jesse,001,2021-06-04_13h47.30.601,Cat face experiment_0-249,2021.1.4,MacIntel,60.0024001
,,,,,,p,1.253225,0,98,98,98,1,98,images/flickr_cat_000107.jpg,images/flickr_cat_000395.jpg,Jesse,001,2021-06-04_13h47.30.601,Cat face experiment_0-249,2021.1.4,MacIntel,60.0024001
,,,,,,p,1.669615,0,99,99,99,1,99,images/flickr_cat_000109.jpg,images/flickr_cat_000396.jpg,Jesse,001,2021-06-04_13h47.30.601,Cat face experiment_0-249,2021.1.4,MacIntel,60.0024001
,,,,,,p,1.902885,0,100,100,100,1,100,images/flickr_cat_000110.jpg,images/flickr_cat_000397.jpg,Jesse,001,2021-06-04_13h47.30.601,Cat face experiment_0-249,2021.1.4,MacIntel,60.0024001
,,,,,,q,1.63717,0,101,101,101,1,101,images/flickr_cat_000111.jpg,images/flickr_cat_000398.jpg,Jesse,001,2021-06-04_13h47.30.601,Cat face experiment_0-249,2021.1.4,MacIntel,60.0024001
,,,,,,q,1.213115,0,102,102,102,1,102,images/flickr_cat_000112.jpg,images/flickr_cat_000399.jpg,Jesse,001,2021-06-04_13h47.30.601,Cat face experiment_0-249,2021.1.4,MacIntel,60.0024001
,,,,,,q,3.502825,0,103,103,103,1,103,images/flickr_cat_000113.jpg,images/flickr_cat_000400.jpg,Jesse,001,2021-06-04_13h47.30.601,Cat face experiment_0-249,2021.1.4,MacIntel,60.0024001
,,,,,,q,2.15327,0,104,104,104,1,104,images/flickr_cat_000114.jpg,images/flickr_cat_000401.jpg,Jesse,001,2021-06-04_13h47.30.601,Cat face experiment_0-249,2021.1.4,MacIntel,60.0024001
,,,,,,q,2.435785,0,105,105,105,1,105,images/flickr_cat_000115.jpg,images/flickr_cat_000402.jpg,Jesse,001,2021-06-04_13h47.30.601,Cat face experiment_0-249,2021.1.4,MacIntel,60.0024001
,,,,,,p,2.034735,0,106,106,106,1,106,images/flickr_cat_000116.jpg,images/flickr_cat_000403.jpg,Jesse,001,2021-06-04_13h47.30.601,Cat face experiment_0-249,2021.1.4,MacIntel,60.0024001
,,,,,,q,2.10118,0,107,107,107,1,107,images/flickr_cat_000117.jpg,images/flickr_cat_000404.jpg,Jesse,001,2021-06-04_13h47.30.601,Cat face experiment_0-249,2021.1.4,MacIntel,60.0024001
,,,,,,q,1.152445,0,108,108,108,1,108,images/flickr_cat_000118.jpg,images/flickr_cat_000405.jpg,Jesse,001,2021-06-04_13h47.30.601,Cat face experiment_0-249,2021.1.4,MacIntel,60.0024001
,,,,,,p,1.320395,0,109,109,109,1,109,images/flickr_cat_000119.jpg,images/flickr_cat_000406.jpg,Jesse,001,2021-06-04_13h47.30.601,Cat face experiment_0-249,2021.1.4,MacIntel,60.0024001
,,,,,,p,1.8532,0,110,110,110,1,110,images/flickr_cat_000120.jpg,images/flickr_cat_000407.jpg,Jesse,001,2021-06-04_13h47.30.601,Cat face experiment_0-249,2021.1.4,MacIntel,60.0024001
,,,,,,p,1.194745,0,111,111,111,1,111,images/flickr_cat_000121.jpg,images/flickr_cat_000408.jpg,Jesse,001,2021-06-04_13h47.30.601,Cat face experiment_0-249,2021.1.4,MacIntel,60.0024001
,,,,,,p,1.459225,0,112,112,112,1,112,images/flickr_cat_000122.jpg,images/flickr_cat_000409.jpg,Jesse,001,2021-06-04_13h47.30.601,Cat face experiment_0-249,2021.1.4,MacIntel,60.0024001
,,,,,,q,2.375565,0,113,113,113,1,113,images/flickr_cat_000124.jpg,images/flickr_cat_000410.jpg,Jesse,001,2021-06-04_13h47.30.601,Cat face experiment_0-249,2021.1.4,MacIntel,60.0024001
,,,,,,p,0.936835,0,114,114,114,1,114,images/flickr_cat_000125.jpg,images/flickr_cat_000411.jpg,Jesse,001,2021-06-04_13h47.30.601,Cat face experiment_0-249,2021.1.4,MacIntel,60.0024001
,,,,,,p,1.311685,0,115,115,115,1,115,images/flickr_cat_000126.jpg,images/flickr_cat_000412.jpg,Jesse,001,2021-06-04_13h47.30.601,Cat face experiment_0-249,2021.1.4,MacIntel,60.0024001
,,,,,,q,1.992605,0,116,116,116,1,116,images/flickr_cat_000127.jpg,images/flickr_cat_000413.jpg,Jesse,001,2021-06-04_13h47.30.601,Cat face experiment_0-249,2021.1.4,MacIntel,60.0024001
,,,,,,p,1.19712,0,117,117,117,1,117,images/flickr_cat_000128.jpg,images/flickr_cat_000414.jpg,Jesse,001,2021-06-04_13h47.30.601,Cat face experiment_0-249,2021.1.4,MacIntel,60.0024001
,,,,,,p,1.12793,0,118,118,118,1,118,images/flickr_cat_000129.jpg,images/flickr_cat_000415.jpg,Jesse,001,2021-06-04_13h47.30.601,Cat face experiment_0-249,2021.1.4,MacIntel,60.0024001
,,,,,,p,1.14461,0,119,119,119,1,119,images/flickr_cat_000130.jpg,images/flickr_cat_000416.jpg,Jesse,001,2021-06-04_13h47.30.601,Cat face experiment_0-249,2021.1.4,MacIntel,60.0024001
,,,,,,p,1.802455,0,120,120,120,1,120,images/flickr_cat_000131.jpg,images/flickr_cat_000417.jpg,Jesse,001,2021-06-04_13h47.30.601,Cat face experiment_0-249,2021.1.4,MacIntel,60.0024001
,,,,,,q,1.28981,0,121,121,121,1,121,images/flickr_cat_000132.jpg,images/flickr_cat_000420.jpg,Jesse,001,2021-06-04_13h47.30.601,Cat face experiment_0-249,2021.1.4,MacIntel,60.0024001
,,,,,,p,1.26017,0,122,122,122,1,122,images/flickr_cat_000133.jpg,images/flickr_cat_000421.jpg,Jesse,001,2021-06-04_13h47.30.601,Cat face experiment_0-249,2021.1.4,MacIntel,60.0024001
,,,,,,q,1.95639,0,123,123,123,1,123,images/flickr_cat_000134.jpg,images/flickr_cat_000422.jpg,Jesse,001,2021-06-04_13h47.30.601,Cat face experiment_0-249,2021.1.4,MacIntel,60.0024001
,,,,,,p,2.10339,0,124,124,124,1,124,images/flickr_cat_000135.jpg,images/flickr_cat_000423.jpg,Jesse,001,2021-06-04_13h47.30.601,Cat face experiment_0-249,2021.1.4,MacIntel,60.0024001
,,,,,,p,1.66914,0,125,125,125,1,125,images/flickr_cat_000137.jpg,images/flickr_cat_000424.jpg,Jesse,001,2021-06-04_13h47.30.601,Cat face experiment_0-249,2021.1.4,MacIntel,60.0024001
,,,,,,q,1.334895,0,126,126,126,1,126,images/flickr_cat_000138.jpg,images/flickr_cat_000425.jpg,Jesse,001,2021-06-04_13h47.30.601,Cat face experiment_0-249,2021.1.4,MacIntel,60.0024001
,,,,,,q,1.314155,0,127,127,127,1,127,images/flickr_cat_000139.jpg,images/flickr_cat_000426.jpg,Jesse,001,2021-06-04_13h47.30.601,Cat face experiment_0-249,2021.1.4,MacIntel,60.0024001
,,,,,,p,1.312055,0,128,128,128,1,128,images/flickr_cat_000140.jpg,images/flickr_cat_000427.jpg,Jesse,001,2021-06-04_13h47.30.601,Cat face experiment_0-249,2021.1.4,MacIntel,60.0024001
,,,,,,p,2.511545,0,129,129,129,1,129,images/flickr_cat_000141.jpg,images/flickr_cat_000428.jpg,Jesse,001,2021-06-04_13h47.30.601,Cat face experiment_0-249,2021.1.4,MacIntel,60.0024001
,,,,,,p,1.61042,0,130,130,130,1,130,images/flickr_cat_000142.jpg,images/flickr_cat_000429.jpg,Jesse,001,2021-06-04_13h47.30.601,Cat face experiment_0-249,2021.1.4,MacIntel,60.0024001
,,,,,,p,2.669335,0,131,131,131,1,131,images/flickr_cat_000143.jpg,images/flickr_cat_000430.jpg,Jesse,001,2021-06-04_13h47.30.601,Cat face experiment_0-249,2021.1.4,MacIntel,60.0024001
,,,,,,q,1.35346,0,132,132,132,1,132,images/flickr_cat_000144.jpg,images/flickr_cat_000431.jpg,Jesse,001,2021-06-04_13h47.30.601,Cat face experiment_0-249,2021.1.4,MacIntel,60.0024001
,,,,,,q,1.16223,0,133,133,133,1,133,images/flickr_cat_000145.jpg,images/flickr_cat_000432.jpg,Jesse,001,2021-06-04_13h47.30.601,Cat face experiment_0-249,2021.1.4,MacIntel,60.0024001
,,,,,,q,1.003195,0,134,134,134,1,134,images/flickr_cat_000146.jpg,images/flickr_cat_000433.jpg,Jesse,001,2021-06-04_13h47.30.601,Cat face experiment_0-249,2021.1.4,MacIntel,60.0024001
,,,,,,p,3.212085,0,135,135,135,1,135,images/flickr_cat_000147.jpg,images/flickr_cat_000434.jpg,Jesse,001,2021-06-04_13h47.30.601,Cat face experiment_0-249,2021.1.4,MacIntel,60.0024001
,,,,,,q,0.935805,0,136,136,136,1,136,images/flickr_cat_000148.jpg,images/flickr_cat_000435.jpg,Jesse,001,2021-06-04_13h47.30.601,Cat face experiment_0-249,2021.1.4,MacIntel,60.0024001
,,,,,,p,1.04492,0,137,137,137,1,137,images/flickr_cat_000149.jpg,images/flickr_cat_000436.jpg,Jesse,001,2021-06-04_13h47.30.601,Cat face experiment_0-249,2021.1.4,MacIntel,60.0024001
,,,,,,p,1.2781,0,138,138,138,1,138,images/flickr_cat_000150.jpg,images/flickr_cat_000438.jpg,Jesse,001,2021-06-04_13h47.30.601,Cat face experiment_0-249,2021.1.4,MacIntel,60.0024001
,,,,,,q,1.068395,0,139,139,139,1,139,images/flickr_cat_000151.jpg,images/flickr_cat_000439.jpg,Jesse,001,2021-06-04_13h47.30.601,Cat face experiment_0-249,2021.1.4,MacIntel,60.0024001
,,,,,,p,1.403375,0,140,140,140,1,140,images/flickr_cat_000153.jpg,images/flickr_cat_000440.jpg,Jesse,001,2021-06-04_13h47.30.601,Cat face experiment_0-249,2021.1.4,MacIntel,60.0024001
,,,,,,q,2.87807,0,141,141,141,1,141,images/flickr_cat_000154.jpg,images/flickr_cat_000442.jpg,Jesse,001,2021-06-04_13h47.30.601,Cat face experiment_0-249,2021.1.4,MacIntel,60.0024001
,,,,,,p,1.312305,0,142,142,142,1,142,images/flickr_cat_000155.jpg,images/flickr_cat_000443.jpg,Jesse,001,2021-06-04_13h47.30.601,Cat face experiment_0-249,2021.1.4,MacIntel,60.0024001
,,,,,,p,1.26807,0,143,143,143,1,143,images/flickr_cat_000156.jpg,images/flickr_cat_000444.jpg,Jesse,001,2021-06-04_13h47.30.601,Cat face experiment_0-249,2021.1.4,MacIntel,60.0024001
,,,,,,p,1.59712,0,144,144,144,1,144,images/flickr_cat_000157.jpg,images/flickr_cat_000445.jpg,Jesse,001,2021-06-04_13h47.30.601,Cat face experiment_0-249,2021.1.4,MacIntel,60.0024001
,,,,,,p,2.068315,0,145,145,145,1,145,images/flickr_cat_000158.jpg,images/flickr_cat_000447.jpg,Jesse,001,2021-06-04_13h47.30.601,Cat face experiment_0-249,2021.1.4,MacIntel,60.0024001
,,,,,,p,1.09759,0,146,146,146,1,146,images/flickr_cat_000159.jpg,images/flickr_cat_000448.jpg,Jesse,001,2021-06-04_13h47.30.601,Cat face experiment_0-249,2021.1.4,MacIntel,60.0024001
,,,,,,p,1.344695,0,147,147,147,1,147,images/flickr_cat_000160.jpg,images/flickr_cat_000449.jpg,Jesse,001,2021-06-04_13h47.30.601,Cat face experiment_0-249,2021.1.4,MacIntel,60.0024001
,,,,,,q,2.280135,0,148,148,148,1,148,images/flickr_cat_000161.jpg,images/flickr_cat_000450.jpg,Jesse,001,2021-06-04_13h47.30.601,Cat face experiment_0-249,2021.1.4,MacIntel,60.0024001
,,,,,,q,1.71514,0,149,149,149,1,149,images/flickr_cat_000163.jpg,images/flickr_cat_000451.jpg,Jesse,001,2021-06-04_13h47.30.601,Cat face experiment_0-249,2021.1.4,MacIntel,60.0024001
,,,,,,q,0.919295,0,150,150,150,1,150,images/flickr_cat_000164.jpg,images/flickr_cat_000452.jpg,Jesse,001,2021-06-04_13h47.30.601,Cat face experiment_0-249,2021.1.4,MacIntel,60.0024001
,,,,,,p,1.56942,0,151,151,151,1,151,images/flickr_cat_000166.jpg,images/flickr_cat_000453.jpg,Jesse,001,2021-06-04_13h47.30.601,Cat face experiment_0-249,2021.1.4,MacIntel,60.0024001
,,,,,,p,1.179135,0,152,152,152,1,152,images/flickr_cat_000167.jpg,images/flickr_cat_000454.jpg,Jesse,001,2021-06-04_13h47.30.601,Cat face experiment_0-249,2021.1.4,MacIntel,60.0024001
,,,,,,p,1.004035,0,153,153,153,1,153,images/flickr_cat_000168.jpg,images/flickr_cat_000455.jpg,Jesse,001,2021-06-04_13h47.30.601,Cat face experiment_0-249,2021.1.4,MacIntel,60.0024001
,,,,,,p,1.385285,0,154,154,154,1,154,images/flickr_cat_000169.jpg,images/flickr_cat_000456.jpg,Jesse,001,2021-06-04_13h47.30.601,Cat face experiment_0-249,2021.1.4,MacIntel,60.0024001
,,,,,,p,1.26882,0,155,155,155,1,155,images/flickr_cat_000170.jpg,images/flickr_cat_000457.jpg,Jesse,001,2021-06-04_13h47.30.601,Cat face experiment_0-249,2021.1.4,MacIntel,60.0024001
,,,,,,q,1.10407,0,156,156,156,1,156,images/flickr_cat_000171.jpg,images/flickr_cat_000458.jpg,Jesse,001,2021-06-04_13h47.30.601,Cat face experiment_0-249,2021.1.4,MacIntel,60.0024001
,,,,,,p,0.963345,0,157,157,157,1,157,images/flickr_cat_000172.jpg,images/flickr_cat_000459.jpg,Jesse,001,2021-06-04_13h47.30.601,Cat face experiment_0-249,2021.1.4,MacIntel,60.0024001
,,,,,,q,1.211085,0,158,158,158,1,158,images/flickr_cat_000173.jpg,images/flickr_cat_000460.jpg,Jesse,001,2021-06-04_13h47.30.601,Cat face experiment_0-249,2021.1.4,MacIntel,60.0024001
,,,,,,q,1.145935,0,159,159,159,1,159,images/flickr_cat_000178.jpg,images/flickr_cat_000461.jpg,Jesse,001,2021-06-04_13h47.30.601,Cat face experiment_0-249,2021.1.4,MacIntel,60.0024001
,,,,,,p,1.64322,0,160,160,160,1,160,images/flickr_cat_000179.jpg,images/flickr_cat_000462.jpg,Jesse,001,2021-06-04_13h47.30.601,Cat face experiment_0-249,2021.1.4,MacIntel,60.0024001
,,,,,,q,1.373135,0,161,161,161,1,161,images/flickr_cat_000181.jpg,images/flickr_cat_000463.jpg,Jesse,001,2021-06-04_13h47.30.601,Cat face experiment_0-249,2021.1.4,MacIntel,60.0024001
,,,,,,p,1.335535,0,162,162,162,1,162,images/flickr_cat_000185.jpg,images/flickr_cat_000464.jpg,Jesse,001,2021-06-04_13h47.30.601,Cat face experiment_0-249,2021.1.4,MacIntel,60.0024001
,,,,,,q,0.97763,0,163,163,163,1,163,images/flickr_cat_000186.jpg,images/flickr_cat_000465.jpg,Jesse,001,2021-06-04_13h47.30.601,Cat face experiment_0-249,2021.1.4,MacIntel,60.0024001
,,,,,,q,1.111655,0,164,164,164,1,164,images/flickr_cat_000187.jpg,images/flickr_cat_000466.jpg,Jesse,001,2021-06-04_13h47.30.601,Cat face experiment_0-249,2021.1.4,MacIntel,60.0024001
,,,,,,p,1.050885,0,165,165,165,1,165,images/flickr_cat_000188.jpg,images/flickr_cat_000467.jpg,Jesse,001,2021-06-04_13h47.30.601,Cat face experiment_0-249,2021.1.4,MacIntel,60.0024001
,,,,,,p,1.43831,0,166,166,166,1,166,images/flickr_cat_000189.jpg,images/flickr_cat_000468.jpg,Jesse,001,2021-06-04_13h47.30.601,Cat face experiment_0-249,2021.1.4,MacIntel,60.0024001
,,,,,,p,1.570165,0,167,167,167,1,167,images/flickr_cat_000190.jpg,images/flickr_cat_000469.jpg,Jesse,001,2021-06-04_13h47.30.601,Cat face experiment_0-249,2021.1.4,MacIntel,60.0024001
,,,,,,p,1.518705,0,168,168,168,1,168,images/flickr_cat_000192.jpg,images/flickr_cat_000470.jpg,Jesse,001,2021-06-04_13h47.30.601,Cat face experiment_0-249,2021.1.4,MacIntel,60.0024001
,,,,,,p,1.20471,0,169,169,169,1,169,images/flickr_cat_000193.jpg,images/flickr_cat_000471.jpg,Jesse,001,2021-06-04_13h47.30.601,Cat face experiment_0-249,2021.1.4,MacIntel,60.0024001
,,,,,,q,1.403355,0,170,170,170,1,170,images/flickr_cat_000194.jpg,images/flickr_cat_000472.jpg,Jesse,001,2021-06-04_13h47.30.601,Cat face experiment_0-249,2021.1.4,MacIntel,60.0024001
,,,,,,p,1.269915,0,171,171,171,1,171,images/flickr_cat_000195.jpg,images/flickr_cat_000473.jpg,Jesse,001,2021-06-04_13h47.30.601,Cat face experiment_0-249,2021.1.4,MacIntel,60.0024001
,,,,,,p,1.176895,0,172,172,172,1,172,images/flickr_cat_000196.jpg,images/flickr_cat_000474.jpg,Jesse,001,2021-06-04_13h47.30.601,Cat face experiment_0-249,2021.1.4,MacIntel,60.0024001
,,,,,,p,1.015045,0,173,173,173,1,173,images/flickr_cat_000197.jpg,images/flickr_cat_000475.jpg,Jesse,001,2021-06-04_13h47.30.601,Cat face experiment_0-249,2021.1.4,MacIntel,60.0024001
,,,,,,p,2.036105,0,174,174,174,1,174,images/flickr_cat_000198.jpg,images/flickr_cat_000476.jpg,Jesse,001,2021-06-04_13h47.30.601,Cat face experiment_0-249,2021.1.4,MacIntel,60.0024001
,,,,,,p,1.07646,0,175,175,175,1,175,images/flickr_cat_000199.jpg,images/flickr_cat_000477.jpg,Jesse,001,2021-06-04_13h47.30.601,Cat face experiment_0-249,2021.1.4,MacIntel,60.0024001
,,,,,,p,1.035915,0,176,176,176,1,176,images/flickr_cat_000200.jpg,images/flickr_cat_000478.jpg,Jesse,001,2021-06-04_13h47.30.601,Cat face experiment_0-249,2021.1.4,MacIntel,60.0024001
,,,,,,p,1.21075,0,177,177,177,1,177,images/flickr_cat_000201.jpg,images/flickr_cat_000479.jpg,Jesse,001,2021-06-04_13h47.30.601,Cat face experiment_0-249,2021.1.4,MacIntel,60.0024001
,,,,,,p,1.401995,0,178,178,178,1,178,images/flickr_cat_000202.jpg,images/flickr_cat_000480.jpg,Jesse,001,2021-06-04_13h47.30.601,Cat face experiment_0-249,2021.1.4,MacIntel,60.0024001
,,,,,,q,1.27752,0,179,179,179,1,179,images/flickr_cat_000203.jpg,images/flickr_cat_000481.jpg,Jesse,001,2021-06-04_13h47.30.601,Cat face experiment_0-249,2021.1.4,MacIntel,60.0024001
,,,,,,p,0.944825,0,180,180,180,1,180,images/flickr_cat_000204.jpg,images/flickr_cat_000482.jpg,Jesse,001,2021-06-04_13h47.30.601,Cat face experiment_0-249,2021.1.4,MacIntel,60.0024001
,,,,,,p,1.237095,0,181,181,181,1,181,images/flickr_cat_000205.jpg,images/flickr_cat_000483.jpg,Jesse,001,2021-06-04_13h47.30.601,Cat face experiment_0-249,2021.1.4,MacIntel,60.0024001
,,,,,,q,1.21281,0,182,182,182,1,182,images/flickr_cat_000206.jpg,images/flickr_cat_000484.jpg,Jesse,001,2021-06-04_13h47.30.601,Cat face experiment_0-249,2021.1.4,MacIntel,60.0024001
,,,,,,q,1.469365,0,183,183,183,1,183,images/flickr_cat_000207.jpg,images/flickr_cat_000485.jpg,Jesse,001,2021-06-04_13h47.30.601,Cat face experiment_0-249,2021.1.4,MacIntel,60.0024001
,,,,,,p,1.12162,0,184,184,184,1,184,images/flickr_cat_000209.jpg,images/flickr_cat_000486.jpg,Jesse,001,2021-06-04_13h47.30.601,Cat face experiment_0-249,2021.1.4,MacIntel,60.0024001
,,,,,,q,2.46873,0,185,185,185,1,185,images/flickr_cat_000210.jpg,images/flickr_cat_000487.jpg,Jesse,001,2021-06-04_13h47.30.601,Cat face experiment_0-249,2021.1.4,MacIntel,60.0024001
,,,,,,p,2.14915,0,186,186,186,1,186,images/flickr_cat_000211.jpg,images/flickr_cat_000488.jpg,Jesse,001,2021-06-04_13h47.30.601,Cat face experiment_0-249,2021.1.4,MacIntel,60.0024001
,,,,,,p,1.103835,0,187,187,187,1,187,images/flickr_cat_000212.jpg,images/flickr_cat_000489.jpg,Jesse,001,2021-06-04_13h47.30.601,Cat face experiment_0-249,2021.1.4,MacIntel,60.0024001
,,,,,,q,1.148555,0,188,188,188,1,188,images/flickr_cat_000213.jpg,images/flickr_cat_000490.jpg,Jesse,001,2021-06-04_13h47.30.601,Cat face experiment_0-249,2021.1.4,MacIntel,60.0024001
,,,,,,q,1.077065,0,189,189,189,1,189,images/flickr_cat_000214.jpg,images/flickr_cat_000491.jpg,Jesse,001,2021-06-04_13h47.30.601,Cat face experiment_0-249,2021.1.4,MacIntel,60.0024001
,,,,,,p,1.04418,0,190,190,190,1,190,images/flickr_cat_000215.jpg,images/flickr_cat_000492.jpg,Jesse,001,2021-06-04_13h47.30.601,Cat face experiment_0-249,2021.1.4,MacIntel,60.0024001
,,,,,,p,1.01433,0,191,191,191,1,191,images/flickr_cat_000217.jpg,images/flickr_cat_000493.jpg,Jesse,001,2021-06-04_13h47.30.601,Cat face experiment_0-249,2021.1.4,MacIntel,60.0024001
,,,,,,q,1.6021,0,192,192,192,1,192,images/flickr_cat_000218.jpg,images/flickr_cat_000494.jpg,Jesse,001,2021-06-04_13h47.30.601,Cat face experiment_0-249,2021.1.4,MacIntel,60.0024001
,,,,,,p,1.14177,0,193,193,193,1,193,images/flickr_cat_000219.jpg,images/flickr_cat_000496.jpg,Jesse,001,2021-06-04_13h47.30.601,Cat face experiment_0-249,2021.1.4,MacIntel,60.0024001
,,,,,,p,1.360175,0,194,194,194,1,194,images/flickr_cat_000220.jpg,images/flickr_cat_000497.jpg,Jesse,001,2021-06-04_13h47.30.601,Cat face experiment_0-249,2021.1.4,MacIntel,60.0024001
,,,,,,p,1.81172,0,195,195,195,1,195,images/flickr_cat_000221.jpg,images/flickr_cat_000498.jpg,Jesse,001,2021-06-04_13h47.30.601,Cat face experiment_0-249,2021.1.4,MacIntel,60.0024001
,,,,,,q,1.08724,0,196,196,196,1,196,images/flickr_cat_000222.jpg,images/flickr_cat_000499.jpg,Jesse,001,2021-06-04_13h47.30.601,Cat face experiment_0-249,2021.1.4,MacIntel,60.0024001
,,,,,,p,0.90361,0,197,197,197,1,197,images/flickr_cat_000223.jpg,images/flickr_cat_000500.jpg,Jesse,001,2021-06-04_13h47.30.601,Cat face experiment_0-249,2021.1.4,MacIntel,60.0024001
,,,,,,q,1.31121,0,198,198,198,1,198,images/flickr_cat_000224.jpg,images/flickr_cat_000501.jpg,Jesse,001,2021-06-04_13h47.30.601,Cat face experiment_0-249,2021.1.4,MacIntel,60.0024001
,,,,,,q,1.118515,0,199,199,199,1,199,images/flickr_cat_000225.jpg,images/flickr_cat_000502.jpg,Jesse,001,2021-06-04_13h47.30.601,Cat face experiment_0-249,2021.1.4,MacIntel,60.0024001
,,,,,,p,0.975985,0,200,200,200,1,200,images/flickr_cat_000227.jpg,images/flickr_cat_000503.jpg,Jesse,001,2021-06-04_13h47.30.601,Cat face experiment_0-249,2021.1.4,MacIntel,60.0024001
,,,,,,p,0.95167,0,201,201,201,1,201,images/flickr_cat_000228.jpg,images/flickr_cat_000504.jpg,Jesse,001,2021-06-04_13h47.30.601,Cat face experiment_0-249,2021.1.4,MacIntel,60.0024001
,,,,,,q,1.048955,0,202,202,202,1,202,images/flickr_cat_000229.jpg,images/flickr_cat_000505.jpg,Jesse,001,2021-06-04_13h47.30.601,Cat face experiment_0-249,2021.1.4,MacIntel,60.0024001
,,,,,,p,1.00276,0,203,203,203,1,203,images/flickr_cat_000231.jpg,images/flickr_cat_000506.jpg,Jesse,001,2021-06-04_13h47.30.601,Cat face experiment_0-249,2021.1.4,MacIntel,60.0024001
,,,,,,p,1.24399,0,204,204,204,1,204,images/flickr_cat_000234.jpg,images/flickr_cat_000507.jpg,Jesse,001,2021-06-04_13h47.30.601,Cat face experiment_0-249,2021.1.4,MacIntel,60.0024001
,,,,,,p,1.270265,0,205,205,205,1,205,images/flickr_cat_000235.jpg,images/flickr_cat_000508.jpg,Jesse,001,2021-06-04_13h47.30.601,Cat face experiment_0-249,2021.1.4,MacIntel,60.0024001
,,,,,,p,1.403005,0,206,206,206,1,206,images/flickr_cat_000237.jpg,images/flickr_cat_000509.jpg,Jesse,001,2021-06-04_13h47.30.601,Cat face experiment_0-249,2021.1.4,MacIntel,60.0024001
,,,,,,p,1.26872,0,207,207,207,1,207,images/flickr_cat_000239.jpg,images/flickr_cat_000510.jpg,Jesse,001,2021-06-04_13h47.30.601,Cat face experiment_0-249,2021.1.4,MacIntel,60.0024001
,,,,,,p,1.04426,0,208,208,208,1,208,images/flickr_cat_000240.jpg,images/flickr_cat_000511.jpg,Jesse,001,2021-06-04_13h47.30.601,Cat face experiment_0-249,2021.1.4,MacIntel,60.0024001
,,,,,,p,1.603165,0,209,209,209,1,209,images/flickr_cat_000241.jpg,images/flickr_cat_000512.jpg,Jesse,001,2021-06-04_13h47.30.601,Cat face experiment_0-249,2021.1.4,MacIntel,60.0024001
,,,,,,p,1.001785,0,210,210,210,1,210,images/flickr_cat_000242.jpg,images/flickr_cat_000513.jpg,Jesse,001,2021-06-04_13h47.30.601,Cat face experiment_0-249,2021.1.4,MacIntel,60.0024001
,,,,,,p,1.17178,0,211,211,211,1,211,images/flickr_cat_000243.jpg,images/flickr_cat_000515.jpg,Jesse,001,2021-06-04_13h47.30.601,Cat face experiment_0-249,2021.1.4,MacIntel,60.0024001
,,,,,,q,1.10931,0,212,212,212,1,212,images/flickr_cat_000244.jpg,images/flickr_cat_000516.jpg,Jesse,001,2021-06-04_13h47.30.601,Cat face experiment_0-249,2021.1.4,MacIntel,60.0024001
,,,,,,q,1.2356,0,213,213,213,1,213,images/flickr_cat_000245.jpg,images/flickr_cat_000517.jpg,Jesse,001,2021-06-04_13h47.30.601,Cat face experiment_0-249,2021.1.4,MacIntel,60.0024001
,,,,,,q,1.18298,0,214,214,214,1,214,images/flickr_cat_000246.jpg,images/flickr_cat_000518.jpg,Jesse,001,2021-06-04_13h47.30.601,Cat face experiment_0-249,2021.1.4,MacIntel,60.0024001
,,,,,,q,1.370015,0,215,215,215,1,215,images/flickr_cat_000247.jpg,images/flickr_cat_000519.jpg,Jesse,001,2021-06-04_13h47.30.601,Cat face experiment_0-249,2021.1.4,MacIntel,60.0024001
,,,,,,p,1.127,0,216,216,216,1,216,images/flickr_cat_000248.jpg,images/flickr_cat_000520.jpg,Jesse,001,2021-06-04_13h47.30.601,Cat face experiment_0-249,2021.1.4,MacIntel,60.0024001
,,,,,,p,1.102875,0,217,217,217,1,217,images/flickr_cat_000249.jpg,images/flickr_cat_000521.jpg,Jesse,001,2021-06-04_13h47.30.601,Cat face experiment_0-249,2021.1.4,MacIntel,60.0024001
,,,,,,q,1.269865,0,218,218,218,1,218,images/flickr_cat_000250.jpg,images/flickr_cat_000523.jpg,Jesse,001,2021-06-04_13h47.30.601,Cat face experiment_0-249,2021.1.4,MacIntel,60.0024001
,,,,,,q,1.336835,0,219,219,219,1,219,images/flickr_cat_000251.jpg,images/flickr_cat_000524.jpg,Jesse,001,2021-06-04_13h47.30.601,Cat face experiment_0-249,2021.1.4,MacIntel,60.0024001
,,,,,,q,1.44491,0,220,220,220,1,220,images/flickr_cat_000252.jpg,images/flickr_cat_000525.jpg,Jesse,001,2021-06-04_13h47.30.601,Cat face experiment_0-249,2021.1.4,MacIntel,60.0024001
,,,,,,q,1.510565,0,221,221,221,1,221,images/flickr_cat_000254.jpg,images/flickr_cat_000527.jpg,Jesse,001,2021-06-04_13h47.30.601,Cat face experiment_0-249,2021.1.4,MacIntel,60.0024001
,,,,,,p,1.435275,0,222,222,222,1,222,images/flickr_cat_000255.jpg,images/flickr_cat_000528.jpg,Jesse,001,2021-06-04_13h47.30.601,Cat face experiment_0-249,2021.1.4,MacIntel,60.0024001
,,,,,,q,1.414645,0,223,223,223,1,223,images/flickr_cat_000256.jpg,images/flickr_cat_000530.jpg,Jesse,001,2021-06-04_13h47.30.601,Cat face experiment_0-249,2021.1.4,MacIntel,60.0024001
,,,,,,p,1.23491,0,224,224,224,1,224,images/flickr_cat_000257.jpg,images/flickr_cat_000531.jpg,Jesse,001,2021-06-04_13h47.30.601,Cat face experiment_0-249,2021.1.4,MacIntel,60.0024001
,,,,,,p,1.322415,0,225,225,225,1,225,images/flickr_cat_000258.jpg,images/flickr_cat_000532.jpg,Jesse,001,2021-06-04_13h47.30.601,Cat face experiment_0-249,2021.1.4,MacIntel,60.0024001
,,,,,,q,1.276195,0,226,226,226,1,226,images/flickr_cat_000259.jpg,images/flickr_cat_000533.jpg,Jesse,001,2021-06-04_13h47.30.601,Cat face experiment_0-249,2021.1.4,MacIntel,60.0024001
,,,,,,q,1.523945,0,227,227,227,1,227,images/flickr_cat_000260.jpg,images/flickr_cat_000537.jpg,Jesse,001,2021-06-04_13h47.30.601,Cat face experiment_0-249,2021.1.4,MacIntel,60.0024001
,,,,,,p,1.703315,0,228,228,228,1,228,images/flickr_cat_000261.jpg,images/flickr_cat_000538.jpg,Jesse,001,2021-06-04_13h47.30.601,Cat face experiment_0-249,2021.1.4,MacIntel,60.0024001
,,,,,,p,1.00155,0,229,229,229,1,229,images/flickr_cat_000262.jpg,images/flickr_cat_000539.jpg,Jesse,001,2021-06-04_13h47.30.601,Cat face experiment_0-249,2021.1.4,MacIntel,60.0024001
,,,,,,q,1.211125,0,230,230,230,1,230,images/flickr_cat_000263.jpg,images/flickr_cat_000540.jpg,Jesse,001,2021-06-04_13h47.30.601,Cat face experiment_0-249,2021.1.4,MacIntel,60.0024001
,,,,,,p,0.90285,0,231,231,231,1,231,images/flickr_cat_000264.jpg,images/flickr_cat_000541.jpg,Jesse,001,2021-06-04_13h47.30.601,Cat face experiment_0-249,2021.1.4,MacIntel,60.0024001
,,,,,,q,0.81681,0,232,232,232,1,232,images/flickr_cat_000266.jpg,images/flickr_cat_000542.jpg,Jesse,001,2021-06-04_13h47.30.601,Cat face experiment_0-249,2021.1.4,MacIntel,60.0024001
,,,,,,q,1.040735,0,233,233,233,1,233,images/flickr_cat_000267.jpg,images/flickr_cat_000543.jpg,Jesse,001,2021-06-04_13h47.30.601,Cat face experiment_0-249,2021.1.4,MacIntel,60.0024001
,,,,,,q,0.948885,0,234,234,234,1,234,images/flickr_cat_000268.jpg,images/flickr_cat_000544.jpg,Jesse,001,2021-06-04_13h47.30.601,Cat face experiment_0-249,2021.1.4,MacIntel,60.0024001
,,,,,,p,0.77061,0,235,235,235,1,235,images/flickr_cat_000269.jpg,images/flickr_cat_000545.jpg,Jesse,001,2021-06-04_13h47.30.601,Cat face experiment_0-249,2021.1.4,MacIntel,60.0024001
,,,,,,q,1.09473,0,236,236,236,1,236,images/flickr_cat_000270.jpg,images/flickr_cat_000546.jpg,Jesse,001,2021-06-04_13h47.30.601,Cat face experiment_0-249,2021.1.4,MacIntel,60.0024001
,,,,,,p,0.83604,0,237,237,237,1,237,images/flickr_cat_000271.jpg,images/flickr_cat_000547.jpg,Jesse,001,2021-06-04_13h47.30.601,Cat face experiment_0-249,2021.1.4,MacIntel,60.0024001
,,,,,,q,1.103185,0,238,238,238,1,238,images/flickr_cat_000272.jpg,images/flickr_cat_000548.jpg,Jesse,001,2021-06-04_13h47.30.601,Cat face experiment_0-249,2021.1.4,MacIntel,60.0024001
,,,,,,p,1.36967,0,239,239,239,1,239,images/flickr_cat_000273.jpg,images/flickr_cat_000549.jpg,Jesse,001,2021-06-04_13h47.30.601,Cat face experiment_0-249,2021.1.4,MacIntel,60.0024001
,,,,,,p,1.00154,0,240,240,240,1,240,images/flickr_cat_000274.jpg,images/flickr_cat_000550.jpg,Jesse,001,2021-06-04_13h47.30.601,Cat face experiment_0-249,2021.1.4,MacIntel,60.0024001
,,,,,,p,1.12804,0,241,241,241,1,241,images/flickr_cat_000275.jpg,images/flickr_cat_000551.jpg,Jesse,001,2021-06-04_13h47.30.601,Cat face experiment_0-249,2021.1.4,MacIntel,60.0024001
,,,,,,p,1.025955,0,242,242,242,1,242,images/flickr_cat_000276.jpg,images/flickr_cat_000552.jpg,Jesse,001,2021-06-04_13h47.30.601,Cat face experiment_0-249,2021.1.4,MacIntel,60.0024001
,,,,,,p,0.87026,0,243,243,243,1,243,images/flickr_cat_000277.jpg,images/flickr_cat_000553.jpg,Jesse,001,2021-06-04_13h47.30.601,Cat face experiment_0-249,2021.1.4,MacIntel,60.0024001
,,,,,,p,1.67885,0,244,244,244,1,244,images/flickr_cat_000278.jpg,images/flickr_cat_000555.jpg,Jesse,001,2021-06-04_13h47.30.601,Cat face experiment_0-249,2021.1.4,MacIntel,60.0024001
,,,,,,q,1.144005,0,245,245,245,1,245,images/flickr_cat_000279.jpg,images/flickr_cat_000556.jpg,Jesse,001,2021-06-04_13h47.30.601,Cat face experiment_0-249,2021.1.4,MacIntel,60.0024001
,,,,,,p,1.5121,0,246,246,246,1,246,images/flickr_cat_000280.jpg,images/flickr_cat_000558.jpg,Jesse,001,2021-06-04_13h47.30.601,Cat face experiment_0-249,2021.1.4,MacIntel,60.0024001
,,,,,,p,0.602535,0,247,247,247,1,247,images/flickr_cat_000281.jpg,images/flickr_cat_000559.jpg,Jesse,001,2021-06-04_13h47.30.601,Cat face experiment_0-249,2021.1.4,MacIntel,60.0024001
,,,,,,p,1.06991,0,248,248,248,1,248,images/flickr_cat_000282.jpg,images/flickr_cat_000561.jpg,Jesse,001,2021-06-04_13h47.30.601,Cat face experiment_0-249,2021.1.4,MacIntel,60.0024001
,,,,,,q,1.94933,0,249,249,249,1,249,images/flickr_cat_000284.jpg,images/flickr_cat_000562.jpg,Jesse,001,2021-06-04_13h47.30.601,Cat face experiment_0-249,2021.1.4,MacIntel,60.0024001
