key_resp.keys,key_resp.rt,key_resp_2.keys,key_resp_2.rt,key_resp_3.keys,key_resp_3.rt,key_resp_4.keys,key_resp_4.rt,trials.thisRepN,trials.thisTrialN,trials.thisN,trials.thisIndex,trials.ran,trail_nums,img1,img2,participant,session,date,expName,psychopyVersion,OS,frameRate
space,1.0524,space,1.2553,space,0.5835,q,2.2202,0,0,0,0,1,0,images/flickr_dog_000002.jpg,images/flickr_dog_000279.jpg,Eddy2,001,2021-08-23_12h16.30.758,Dog face experiment_0-249,2021.1.4,Win32,145.116819
,,,,,,p,1.7202,0,1,1,1,1,1,images/flickr_dog_000003.jpg,images/flickr_dog_000280.jpg,Eddy2,001,2021-08-23_12h16.30.758,Dog face experiment_0-249,2021.1.4,Win32,145.116819
,,,,,,p,1.4505,0,2,2,2,1,2,images/flickr_dog_000004.jpg,images/flickr_dog_000281.jpg,Eddy2,001,2021-08-23_12h16.30.758,Dog face experiment_0-249,2021.1.4,Win32,145.116819
,,,,,,p,3.0017,0,3,3,3,1,3,images/flickr_dog_000005.jpg,images/flickr_dog_000282.jpg,Eddy2,001,2021-08-23_12h16.30.758,Dog face experiment_0-249,2021.1.4,Win32,145.116819
,,,,,,q,1.9575,0,4,4,4,1,4,images/flickr_dog_000006.jpg,images/flickr_dog_000283.jpg,Eddy2,001,2021-08-23_12h16.30.758,Dog face experiment_0-249,2021.1.4,Win32,145.116819
,,,,,,q,2.9595,0,5,5,5,1,5,images/flickr_dog_000007.jpg,images/flickr_dog_000284.jpg,Eddy2,001,2021-08-23_12h16.30.758,Dog face experiment_0-249,2021.1.4,Win32,145.116819
,,,,,,p,1.7317,0,6,6,6,1,6,images/flickr_dog_000008.jpg,images/flickr_dog_000285.jpg,Eddy2,001,2021-08-23_12h16.30.758,Dog face experiment_0-249,2021.1.4,Win32,145.116819
,,,,,,p,1.0442,0,7,7,7,1,7,images/flickr_dog_000009.jpg,images/flickr_dog_000286.jpg,Eddy2,001,2021-08-23_12h16.30.758,Dog face experiment_0-249,2021.1.4,Win32,145.116819
,,,,,,p,2.6042,0,8,8,8,1,8,images/flickr_dog_000010.jpg,images/flickr_dog_000287.jpg,Eddy2,001,2021-08-23_12h16.30.758,Dog face experiment_0-249,2021.1.4,Win32,145.116819
,,,,,,q,1.2906,0,9,9,9,1,9,images/flickr_dog_000011.jpg,images/flickr_dog_000288.jpg,Eddy2,001,2021-08-23_12h16.30.758,Dog face experiment_0-249,2021.1.4,Win32,145.116819
,,,,,,p,2.0679,0,10,10,10,1,10,images/flickr_dog_000012.jpg,images/flickr_dog_000289.jpg,Eddy2,001,2021-08-23_12h16.30.758,Dog face experiment_0-249,2021.1.4,Win32,145.116819
,,,,,,q,2.1052,0,11,11,11,1,11,images/flickr_dog_000013.jpg,images/flickr_dog_000290.jpg,Eddy2,001,2021-08-23_12h16.30.758,Dog face experiment_0-249,2021.1.4,Win32,145.116819
,,,,,,p,1.263,0,12,12,12,1,12,images/flickr_dog_000014.jpg,images/flickr_dog_000291.jpg,Eddy2,001,2021-08-23_12h16.30.758,Dog face experiment_0-249,2021.1.4,Win32,145.116819
,,,,,,p,1.1271,0,13,13,13,1,13,images/flickr_dog_000015.jpg,images/flickr_dog_000292.jpg,Eddy2,001,2021-08-23_12h16.30.758,Dog face experiment_0-249,2021.1.4,Win32,145.116819
,,,,,,p,1.3338,0,14,14,14,1,14,images/flickr_dog_000016.jpg,images/flickr_dog_000293.jpg,Eddy2,001,2021-08-23_12h16.30.758,Dog face experiment_0-249,2021.1.4,Win32,145.116819
,,,,,,p,0.9733,0,15,15,15,1,15,images/flickr_dog_000017.jpg,images/flickr_dog_000294.jpg,Eddy2,001,2021-08-23_12h16.30.758,Dog face experiment_0-249,2021.1.4,Win32,145.116819
,,,,,,q,1.3545,0,16,16,16,1,16,images/flickr_dog_000018.jpg,images/flickr_dog_000295.jpg,Eddy2,001,2021-08-23_12h16.30.758,Dog face experiment_0-249,2021.1.4,Win32,145.116819
,,,,,,p,1.1167,0,17,17,17,1,17,images/flickr_dog_000019.jpg,images/flickr_dog_000296.jpg,Eddy2,001,2021-08-23_12h16.30.758,Dog face experiment_0-249,2021.1.4,Win32,145.116819
,,,,,,p,0.9653,0,18,18,18,1,18,images/flickr_dog_000020.jpg,images/flickr_dog_000297.jpg,Eddy2,001,2021-08-23_12h16.30.758,Dog face experiment_0-249,2021.1.4,Win32,145.116819
,,,,,,p,1.0792,0,19,19,19,1,19,images/flickr_dog_000021.jpg,images/flickr_dog_000299.jpg,Eddy2,001,2021-08-23_12h16.30.758,Dog face experiment_0-249,2021.1.4,Win32,145.116819
,,,,,,p,2.0479,0,20,20,20,1,20,images/flickr_dog_000022.jpg,images/flickr_dog_000300.jpg,Eddy2,001,2021-08-23_12h16.30.758,Dog face experiment_0-249,2021.1.4,Win32,145.116819
,,,,,,q,1.1789,0,21,21,21,1,21,images/flickr_dog_000023.jpg,images/flickr_dog_000301.jpg,Eddy2,001,2021-08-23_12h16.30.758,Dog face experiment_0-249,2021.1.4,Win32,145.116819
,,,,,,p,1.1107,0,22,22,22,1,22,images/flickr_dog_000024.jpg,images/flickr_dog_000302.jpg,Eddy2,001,2021-08-23_12h16.30.758,Dog face experiment_0-249,2021.1.4,Win32,145.116819
,,,,,,p,0.8983,0,23,23,23,1,23,images/flickr_dog_000025.jpg,images/flickr_dog_000303.jpg,Eddy2,001,2021-08-23_12h16.30.758,Dog face experiment_0-249,2021.1.4,Win32,145.116819
,,,,,,p,1.4119,0,24,24,24,1,24,images/flickr_dog_000026.jpg,images/flickr_dog_000304.jpg,Eddy2,001,2021-08-23_12h16.30.758,Dog face experiment_0-249,2021.1.4,Win32,145.116819
,,,,,,p,2.1811,0,25,25,25,1,25,images/flickr_dog_000027.jpg,images/flickr_dog_000305.jpg,Eddy2,001,2021-08-23_12h16.30.758,Dog face experiment_0-249,2021.1.4,Win32,145.116819
,,,,,,p,1.1311,0,26,26,26,1,26,images/flickr_dog_000028.jpg,images/flickr_dog_000306.jpg,Eddy2,001,2021-08-23_12h16.30.758,Dog face experiment_0-249,2021.1.4,Win32,145.116819
,,,,,,q,1.6103,0,27,27,27,1,27,images/flickr_dog_000029.jpg,images/flickr_dog_000307.jpg,Eddy2,001,2021-08-23_12h16.30.758,Dog face experiment_0-249,2021.1.4,Win32,145.116819
,,,,,,q,1.7138,0,28,28,28,1,28,images/flickr_dog_000030.jpg,images/flickr_dog_000308.jpg,Eddy2,001,2021-08-23_12h16.30.758,Dog face experiment_0-249,2021.1.4,Win32,145.116819
,,,,,,p,0.9843,0,29,29,29,1,29,images/flickr_dog_000031.jpg,images/flickr_dog_000309.jpg,Eddy2,001,2021-08-23_12h16.30.758,Dog face experiment_0-249,2021.1.4,Win32,145.116819
,,,,,,q,1.5899,0,30,30,30,1,30,images/flickr_dog_000032.jpg,images/flickr_dog_000310.jpg,Eddy2,001,2021-08-23_12h16.30.758,Dog face experiment_0-249,2021.1.4,Win32,145.116819
,,,,,,q,2.8536,0,31,31,31,1,31,images/flickr_dog_000033.jpg,images/flickr_dog_000311.jpg,Eddy2,001,2021-08-23_12h16.30.758,Dog face experiment_0-249,2021.1.4,Win32,145.116819
,,,,,,p,1.6626,0,32,32,32,1,32,images/flickr_dog_000034.jpg,images/flickr_dog_000312.jpg,Eddy2,001,2021-08-23_12h16.30.758,Dog face experiment_0-249,2021.1.4,Win32,145.116819
,,,,,,p,0.7907,0,33,33,33,1,33,images/flickr_dog_000035.jpg,images/flickr_dog_000314.jpg,Eddy2,001,2021-08-23_12h16.30.758,Dog face experiment_0-249,2021.1.4,Win32,145.116819
,,,,,,p,0.9843,0,34,34,34,1,34,images/flickr_dog_000036.jpg,images/flickr_dog_000315.jpg,Eddy2,001,2021-08-23_12h16.30.758,Dog face experiment_0-249,2021.1.4,Win32,145.116819
,,,,,,p,4.5814,0,35,35,35,1,35,images/flickr_dog_000037.jpg,images/flickr_dog_000316.jpg,Eddy2,001,2021-08-23_12h16.30.758,Dog face experiment_0-249,2021.1.4,Win32,145.116819
,,,,,,p,1.5633,0,36,36,36,1,36,images/flickr_dog_000038.jpg,images/flickr_dog_000318.jpg,Eddy2,001,2021-08-23_12h16.30.758,Dog face experiment_0-249,2021.1.4,Win32,145.116819
,,,,,,p,1.1469,0,37,37,37,1,37,images/flickr_dog_000039.jpg,images/flickr_dog_000319.jpg,Eddy2,001,2021-08-23_12h16.30.758,Dog face experiment_0-249,2021.1.4,Win32,145.116819
,,,,,,p,2.283,0,38,38,38,1,38,images/flickr_dog_000040.jpg,images/flickr_dog_000320.jpg,Eddy2,001,2021-08-23_12h16.30.758,Dog face experiment_0-249,2021.1.4,Win32,145.116819
,,,,,,p,1.2961,0,39,39,39,1,39,images/flickr_dog_000041.jpg,images/flickr_dog_000321.jpg,Eddy2,001,2021-08-23_12h16.30.758,Dog face experiment_0-249,2021.1.4,Win32,145.116819
,,,,,,p,2.4708,0,40,40,40,1,40,images/flickr_dog_000042.jpg,images/flickr_dog_000322.jpg,Eddy2,001,2021-08-23_12h16.30.758,Dog face experiment_0-249,2021.1.4,Win32,145.116819
,,,,,,p,1.6578,0,41,41,41,1,41,images/flickr_dog_000044.jpg,images/flickr_dog_000323.jpg,Eddy2,001,2021-08-23_12h16.30.758,Dog face experiment_0-249,2021.1.4,Win32,145.116819
,,,,,,p,1.008,0,42,42,42,1,42,images/flickr_dog_000046.jpg,images/flickr_dog_000324.jpg,Eddy2,001,2021-08-23_12h16.30.758,Dog face experiment_0-249,2021.1.4,Win32,145.116819
,,,,,,q,1.1529,0,43,43,43,1,43,images/flickr_dog_000047.jpg,images/flickr_dog_000325.jpg,Eddy2,001,2021-08-23_12h16.30.758,Dog face experiment_0-249,2021.1.4,Win32,145.116819
,,,,,,p,1.0741,0,44,44,44,1,44,images/flickr_dog_000048.jpg,images/flickr_dog_000326.jpg,Eddy2,001,2021-08-23_12h16.30.758,Dog face experiment_0-249,2021.1.4,Win32,145.116819
,,,,,,q,1.0819,0,45,45,45,1,45,images/flickr_dog_000049.jpg,images/flickr_dog_000327.jpg,Eddy2,001,2021-08-23_12h16.30.758,Dog face experiment_0-249,2021.1.4,Win32,145.116819
,,,,,,p,1.6324,0,46,46,46,1,46,images/flickr_dog_000050.jpg,images/flickr_dog_000328.jpg,Eddy2,001,2021-08-23_12h16.30.758,Dog face experiment_0-249,2021.1.4,Win32,145.116819
,,,,,,q,1.4088,0,47,47,47,1,47,images/flickr_dog_000051.jpg,images/flickr_dog_000329.jpg,Eddy2,001,2021-08-23_12h16.30.758,Dog face experiment_0-249,2021.1.4,Win32,145.116819
,,,,,,q,0.986,0,48,48,48,1,48,images/flickr_dog_000052.jpg,images/flickr_dog_000330.jpg,Eddy2,001,2021-08-23_12h16.30.758,Dog face experiment_0-249,2021.1.4,Win32,145.116819
,,,,,,q,1.5065,0,49,49,49,1,49,images/flickr_dog_000053.jpg,images/flickr_dog_000331.jpg,Eddy2,001,2021-08-23_12h16.30.758,Dog face experiment_0-249,2021.1.4,Win32,145.116819
,,,,,,q,1.4431,0,50,50,50,1,50,images/flickr_dog_000055.jpg,images/flickr_dog_000333.jpg,Eddy2,001,2021-08-23_12h16.30.758,Dog face experiment_0-249,2021.1.4,Win32,145.116819
,,,,,,q,1.4466,0,51,51,51,1,51,images/flickr_dog_000056.jpg,images/flickr_dog_000335.jpg,Eddy2,001,2021-08-23_12h16.30.758,Dog face experiment_0-249,2021.1.4,Win32,145.116819
,,,,,,q,0.8747,0,52,52,52,1,52,images/flickr_dog_000057.jpg,images/flickr_dog_000336.jpg,Eddy2,001,2021-08-23_12h16.30.758,Dog face experiment_0-249,2021.1.4,Win32,145.116819
,,,,,,p,1.756,0,53,53,53,1,53,images/flickr_dog_000058.jpg,images/flickr_dog_000337.jpg,Eddy2,001,2021-08-23_12h16.30.758,Dog face experiment_0-249,2021.1.4,Win32,145.116819
,,,,,,p,2.5765,0,54,54,54,1,54,images/flickr_dog_000061.jpg,images/flickr_dog_000338.jpg,Eddy2,001,2021-08-23_12h16.30.758,Dog face experiment_0-249,2021.1.4,Win32,145.116819
,,,,,,q,1.0748,0,55,55,55,1,55,images/flickr_dog_000062.jpg,images/flickr_dog_000339.jpg,Eddy2,001,2021-08-23_12h16.30.758,Dog face experiment_0-249,2021.1.4,Win32,145.116819
,,,,,,q,1.3042,0,56,56,56,1,56,images/flickr_dog_000063.jpg,images/flickr_dog_000340.jpg,Eddy2,001,2021-08-23_12h16.30.758,Dog face experiment_0-249,2021.1.4,Win32,145.116819
,,,,,,p,0.931,0,57,57,57,1,57,images/flickr_dog_000064.jpg,images/flickr_dog_000341.jpg,Eddy2,001,2021-08-23_12h16.30.758,Dog face experiment_0-249,2021.1.4,Win32,145.116819
,,,,,,q,1.5599,0,58,58,58,1,58,images/flickr_dog_000065.jpg,images/flickr_dog_000342.jpg,Eddy2,001,2021-08-23_12h16.30.758,Dog face experiment_0-249,2021.1.4,Win32,145.116819
,,,,,,q,1.1651,0,59,59,59,1,59,images/flickr_dog_000066.jpg,images/flickr_dog_000343.jpg,Eddy2,001,2021-08-23_12h16.30.758,Dog face experiment_0-249,2021.1.4,Win32,145.116819
,,,,,,p,1.8372,0,60,60,60,1,60,images/flickr_dog_000067.jpg,images/flickr_dog_000344.jpg,Eddy2,001,2021-08-23_12h16.30.758,Dog face experiment_0-249,2021.1.4,Win32,145.116819
,,,,,,q,0.8268,0,61,61,61,1,61,images/flickr_dog_000068.jpg,images/flickr_dog_000345.jpg,Eddy2,001,2021-08-23_12h16.30.758,Dog face experiment_0-249,2021.1.4,Win32,145.116819
,,,,,,q,1.2831,0,62,62,62,1,62,images/flickr_dog_000069.jpg,images/flickr_dog_000346.jpg,Eddy2,001,2021-08-23_12h16.30.758,Dog face experiment_0-249,2021.1.4,Win32,145.116819
,,,,,,p,0.7854,0,63,63,63,1,63,images/flickr_dog_000070.jpg,images/flickr_dog_000347.jpg,Eddy2,001,2021-08-23_12h16.30.758,Dog face experiment_0-249,2021.1.4,Win32,145.116819
,,,,,,q,1.0415,0,64,64,64,1,64,images/flickr_dog_000071.jpg,images/flickr_dog_000348.jpg,Eddy2,001,2021-08-23_12h16.30.758,Dog face experiment_0-249,2021.1.4,Win32,145.116819
,,,,,,p,1.0679,0,65,65,65,1,65,images/flickr_dog_000072.jpg,images/flickr_dog_000349.jpg,Eddy2,001,2021-08-23_12h16.30.758,Dog face experiment_0-249,2021.1.4,Win32,145.116819
,,,,,,p,0.9518,0,66,66,66,1,66,images/flickr_dog_000073.jpg,images/flickr_dog_000350.jpg,Eddy2,001,2021-08-23_12h16.30.758,Dog face experiment_0-249,2021.1.4,Win32,145.116819
,,,,,,q,0.9939,0,67,67,67,1,67,images/flickr_dog_000074.jpg,images/flickr_dog_000351.jpg,Eddy2,001,2021-08-23_12h16.30.758,Dog face experiment_0-249,2021.1.4,Win32,145.116819
,,,,,,q,1.2694,0,68,68,68,1,68,images/flickr_dog_000075.jpg,images/flickr_dog_000352.jpg,Eddy2,001,2021-08-23_12h16.30.758,Dog face experiment_0-249,2021.1.4,Win32,145.116819
,,,,,,p,1.9364,0,69,69,69,1,69,images/flickr_dog_000076.jpg,images/flickr_dog_000353.jpg,Eddy2,001,2021-08-23_12h16.30.758,Dog face experiment_0-249,2021.1.4,Win32,145.116819
,,,,,,p,1.2132,0,70,70,70,1,70,images/flickr_dog_000077.jpg,images/flickr_dog_000354.jpg,Eddy2,001,2021-08-23_12h16.30.758,Dog face experiment_0-249,2021.1.4,Win32,145.116819
,,,,,,q,0.9241,0,71,71,71,1,71,images/flickr_dog_000078.jpg,images/flickr_dog_000355.jpg,Eddy2,001,2021-08-23_12h16.30.758,Dog face experiment_0-249,2021.1.4,Win32,145.116819
,,,,,,p,1.6472,0,72,72,72,1,72,images/flickr_dog_000080.jpg,images/flickr_dog_000356.jpg,Eddy2,001,2021-08-23_12h16.30.758,Dog face experiment_0-249,2021.1.4,Win32,145.116819
,,,,,,p,1.1029,0,73,73,73,1,73,images/flickr_dog_000081.jpg,images/flickr_dog_000357.jpg,Eddy2,001,2021-08-23_12h16.30.758,Dog face experiment_0-249,2021.1.4,Win32,145.116819
,,,,,,p,1.0883,0,74,74,74,1,74,images/flickr_dog_000082.jpg,images/flickr_dog_000358.jpg,Eddy2,001,2021-08-23_12h16.30.758,Dog face experiment_0-249,2021.1.4,Win32,145.116819
,,,,,,p,0.8874,0,75,75,75,1,75,images/flickr_dog_000083.jpg,images/flickr_dog_000359.jpg,Eddy2,001,2021-08-23_12h16.30.758,Dog face experiment_0-249,2021.1.4,Win32,145.116819
,,,,,,p,1.1117,0,76,76,76,1,76,images/flickr_dog_000084.jpg,images/flickr_dog_000360.jpg,Eddy2,001,2021-08-23_12h16.30.758,Dog face experiment_0-249,2021.1.4,Win32,145.116819
,,,,,,p,0.9151,0,77,77,77,1,77,images/flickr_dog_000085.jpg,images/flickr_dog_000361.jpg,Eddy2,001,2021-08-23_12h16.30.758,Dog face experiment_0-249,2021.1.4,Win32,145.116819
,,,,,,p,2.2965,0,78,78,78,1,78,images/flickr_dog_000086.jpg,images/flickr_dog_000362.jpg,Eddy2,001,2021-08-23_12h16.30.758,Dog face experiment_0-249,2021.1.4,Win32,145.116819
,,,,,,q,2.7284,0,79,79,79,1,79,images/flickr_dog_000087.jpg,images/flickr_dog_000363.jpg,Eddy2,001,2021-08-23_12h16.30.758,Dog face experiment_0-249,2021.1.4,Win32,145.116819
,,,,,,p,1.082,0,80,80,80,1,80,images/flickr_dog_000088.jpg,images/flickr_dog_000364.jpg,Eddy2,001,2021-08-23_12h16.30.758,Dog face experiment_0-249,2021.1.4,Win32,145.116819
,,,,,,p,1.0818,0,81,81,81,1,81,images/flickr_dog_000089.jpg,images/flickr_dog_000365.jpg,Eddy2,001,2021-08-23_12h16.30.758,Dog face experiment_0-249,2021.1.4,Win32,145.116819
,,,,,,p,0.9812,0,82,82,82,1,82,images/flickr_dog_000090.jpg,images/flickr_dog_000366.jpg,Eddy2,001,2021-08-23_12h16.30.758,Dog face experiment_0-249,2021.1.4,Win32,145.116819
,,,,,,p,1.6125,0,83,83,83,1,83,images/flickr_dog_000091.jpg,images/flickr_dog_000367.jpg,Eddy2,001,2021-08-23_12h16.30.758,Dog face experiment_0-249,2021.1.4,Win32,145.116819
,,,,,,q,1.7235,0,84,84,84,1,84,images/flickr_dog_000092.jpg,images/flickr_dog_000368.jpg,Eddy2,001,2021-08-23_12h16.30.758,Dog face experiment_0-249,2021.1.4,Win32,145.116819
,,,,,,q,1.8545,0,85,85,85,1,85,images/flickr_dog_000093.jpg,images/flickr_dog_000369.jpg,Eddy2,001,2021-08-23_12h16.30.758,Dog face experiment_0-249,2021.1.4,Win32,145.116819
,,,,,,q,2.6868,0,86,86,86,1,86,images/flickr_dog_000095.jpg,images/flickr_dog_000370.jpg,Eddy2,001,2021-08-23_12h16.30.758,Dog face experiment_0-249,2021.1.4,Win32,145.116819
,,,,,,q,1.1233,0,87,87,87,1,87,images/flickr_dog_000096.jpg,images/flickr_dog_000371.jpg,Eddy2,001,2021-08-23_12h16.30.758,Dog face experiment_0-249,2021.1.4,Win32,145.116819
,,,,,,p,2.8697,0,88,88,88,1,88,images/flickr_dog_000097.jpg,images/flickr_dog_000372.jpg,Eddy2,001,2021-08-23_12h16.30.758,Dog face experiment_0-249,2021.1.4,Win32,145.116819
,,,,,,p,1.054,0,89,89,89,1,89,images/flickr_dog_000098.jpg,images/flickr_dog_000374.jpg,Eddy2,001,2021-08-23_12h16.30.758,Dog face experiment_0-249,2021.1.4,Win32,145.116819
,,,,,,p,1.2552,0,90,90,90,1,90,images/flickr_dog_000099.jpg,images/flickr_dog_000375.jpg,Eddy2,001,2021-08-23_12h16.30.758,Dog face experiment_0-249,2021.1.4,Win32,145.116819
,,,,,,p,1.4256,0,91,91,91,1,91,images/flickr_dog_000100.jpg,images/flickr_dog_000376.jpg,Eddy2,001,2021-08-23_12h16.30.758,Dog face experiment_0-249,2021.1.4,Win32,145.116819
,,,,,,p,2.3551,0,92,92,92,1,92,images/flickr_dog_000101.jpg,images/flickr_dog_000377.jpg,Eddy2,001,2021-08-23_12h16.30.758,Dog face experiment_0-249,2021.1.4,Win32,145.116819
,,,,,,q,1.9742,0,93,93,93,1,93,images/flickr_dog_000102.jpg,images/flickr_dog_000378.jpg,Eddy2,001,2021-08-23_12h16.30.758,Dog face experiment_0-249,2021.1.4,Win32,145.116819
,,,,,,p,4.5483,0,94,94,94,1,94,images/flickr_dog_000103.jpg,images/flickr_dog_000379.jpg,Eddy2,001,2021-08-23_12h16.30.758,Dog face experiment_0-249,2021.1.4,Win32,145.116819
,,,,,,p,1.2195,0,95,95,95,1,95,images/flickr_dog_000105.jpg,images/flickr_dog_000381.jpg,Eddy2,001,2021-08-23_12h16.30.758,Dog face experiment_0-249,2021.1.4,Win32,145.116819
,,,,,,p,1.2469,0,96,96,96,1,96,images/flickr_dog_000106.jpg,images/flickr_dog_000383.jpg,Eddy2,001,2021-08-23_12h16.30.758,Dog face experiment_0-249,2021.1.4,Win32,145.116819
,,,,,,q,3.2109,0,97,97,97,1,97,images/flickr_dog_000107.jpg,images/flickr_dog_000384.jpg,Eddy2,001,2021-08-23_12h16.30.758,Dog face experiment_0-249,2021.1.4,Win32,145.116819
,,,,,,q,3.1877,0,98,98,98,1,98,images/flickr_dog_000108.jpg,images/flickr_dog_000385.jpg,Eddy2,001,2021-08-23_12h16.30.758,Dog face experiment_0-249,2021.1.4,Win32,145.116819
,,,,,,q,1.5332,0,99,99,99,1,99,images/flickr_dog_000109.jpg,images/flickr_dog_000386.jpg,Eddy2,001,2021-08-23_12h16.30.758,Dog face experiment_0-249,2021.1.4,Win32,145.116819
,,,,,,q,1.6238,0,100,100,100,1,100,images/flickr_dog_000110.jpg,images/flickr_dog_000387.jpg,Eddy2,001,2021-08-23_12h16.30.758,Dog face experiment_0-249,2021.1.4,Win32,145.116819
,,,,,,q,3.1829,0,101,101,101,1,101,images/flickr_dog_000112.jpg,images/flickr_dog_000388.jpg,Eddy2,001,2021-08-23_12h16.30.758,Dog face experiment_0-249,2021.1.4,Win32,145.116819
,,,,,,p,0.8605,0,102,102,102,1,102,images/flickr_dog_000113.jpg,images/flickr_dog_000389.jpg,Eddy2,001,2021-08-23_12h16.30.758,Dog face experiment_0-249,2021.1.4,Win32,145.116819
,,,,,,p,1.491,0,103,103,103,1,103,images/flickr_dog_000114.jpg,images/flickr_dog_000390.jpg,Eddy2,001,2021-08-23_12h16.30.758,Dog face experiment_0-249,2021.1.4,Win32,145.116819
,,,,,,p,1.4011,0,104,104,104,1,104,images/flickr_dog_000115.jpg,images/flickr_dog_000391.jpg,Eddy2,001,2021-08-23_12h16.30.758,Dog face experiment_0-249,2021.1.4,Win32,145.116819
,,,,,,p,1.7021,0,105,105,105,1,105,images/flickr_dog_000117.jpg,images/flickr_dog_000392.jpg,Eddy2,001,2021-08-23_12h16.30.758,Dog face experiment_0-249,2021.1.4,Win32,145.116819
,,,,,,q,0.9942,0,106,106,106,1,106,images/flickr_dog_000118.jpg,images/flickr_dog_000393.jpg,Eddy2,001,2021-08-23_12h16.30.758,Dog face experiment_0-249,2021.1.4,Win32,145.116819
,,,,,,p,1.4284,0,107,107,107,1,107,images/flickr_dog_000119.jpg,images/flickr_dog_000394.jpg,Eddy2,001,2021-08-23_12h16.30.758,Dog face experiment_0-249,2021.1.4,Win32,145.116819
,,,,,,p,1.5748,0,108,108,108,1,108,images/flickr_dog_000120.jpg,images/flickr_dog_000395.jpg,Eddy2,001,2021-08-23_12h16.30.758,Dog face experiment_0-249,2021.1.4,Win32,145.116819
,,,,,,p,1.3686,0,109,109,109,1,109,images/flickr_dog_000121.jpg,images/flickr_dog_000396.jpg,Eddy2,001,2021-08-23_12h16.30.758,Dog face experiment_0-249,2021.1.4,Win32,145.116819
,,,,,,q,1.9376,0,110,110,110,1,110,images/flickr_dog_000122.jpg,images/flickr_dog_000397.jpg,Eddy2,001,2021-08-23_12h16.30.758,Dog face experiment_0-249,2021.1.4,Win32,145.116819
,,,,,,p,1.4227,0,111,111,111,1,111,images/flickr_dog_000123.jpg,images/flickr_dog_000398.jpg,Eddy2,001,2021-08-23_12h16.30.758,Dog face experiment_0-249,2021.1.4,Win32,145.116819
,,,,,,p,1.2623,0,112,112,112,1,112,images/flickr_dog_000124.jpg,images/flickr_dog_000399.jpg,Eddy2,001,2021-08-23_12h16.30.758,Dog face experiment_0-249,2021.1.4,Win32,145.116819
,,,,,,p,0.9847,0,113,113,113,1,113,images/flickr_dog_000125.jpg,images/flickr_dog_000400.jpg,Eddy2,001,2021-08-23_12h16.30.758,Dog face experiment_0-249,2021.1.4,Win32,145.116819
,,,,,,p,1.1166,0,114,114,114,1,114,images/flickr_dog_000126.jpg,images/flickr_dog_000401.jpg,Eddy2,001,2021-08-23_12h16.30.758,Dog face experiment_0-249,2021.1.4,Win32,145.116819
,,,,,,p,1.243,0,115,115,115,1,115,images/flickr_dog_000127.jpg,images/flickr_dog_000402.jpg,Eddy2,001,2021-08-23_12h16.30.758,Dog face experiment_0-249,2021.1.4,Win32,145.116819
,,,,,,p,1.4504,0,116,116,116,1,116,images/flickr_dog_000128.jpg,images/flickr_dog_000403.jpg,Eddy2,001,2021-08-23_12h16.30.758,Dog face experiment_0-249,2021.1.4,Win32,145.116819
,,,,,,p,1.3695,0,117,117,117,1,117,images/flickr_dog_000129.jpg,images/flickr_dog_000404.jpg,Eddy2,001,2021-08-23_12h16.30.758,Dog face experiment_0-249,2021.1.4,Win32,145.116819
,,,,,,p,1.2433,0,118,118,118,1,118,images/flickr_dog_000130.jpg,images/flickr_dog_000405.jpg,Eddy2,001,2021-08-23_12h16.30.758,Dog face experiment_0-249,2021.1.4,Win32,145.116819
,,,,,,p,1.5557,0,119,119,119,1,119,images/flickr_dog_000131.jpg,images/flickr_dog_000406.jpg,Eddy2,001,2021-08-23_12h16.30.758,Dog face experiment_0-249,2021.1.4,Win32,145.116819
,,,,,,p,1.4985,0,120,120,120,1,120,images/flickr_dog_000132.jpg,images/flickr_dog_000407.jpg,Eddy2,001,2021-08-23_12h16.30.758,Dog face experiment_0-249,2021.1.4,Win32,145.116819
,,,,,,p,1.4636,0,121,121,121,1,121,images/flickr_dog_000133.jpg,images/flickr_dog_000408.jpg,Eddy2,001,2021-08-23_12h16.30.758,Dog face experiment_0-249,2021.1.4,Win32,145.116819
,,,,,,p,1.6168,0,122,122,122,1,122,images/flickr_dog_000134.jpg,images/flickr_dog_000409.jpg,Eddy2,001,2021-08-23_12h16.30.758,Dog face experiment_0-249,2021.1.4,Win32,145.116819
,,,,,,p,2.0007,0,123,123,123,1,123,images/flickr_dog_000135.jpg,images/flickr_dog_000410.jpg,Eddy2,001,2021-08-23_12h16.30.758,Dog face experiment_0-249,2021.1.4,Win32,145.116819
,,,,,,p,1.5785,0,124,124,124,1,124,images/flickr_dog_000136.jpg,images/flickr_dog_000411.jpg,Eddy2,001,2021-08-23_12h16.30.758,Dog face experiment_0-249,2021.1.4,Win32,145.116819
,,,,,,p,1.9088,0,125,125,125,1,125,images/flickr_dog_000137.jpg,images/flickr_dog_000412.jpg,Eddy2,001,2021-08-23_12h16.30.758,Dog face experiment_0-249,2021.1.4,Win32,145.116819
,,,,,,p,1.0732,0,126,126,126,1,126,images/flickr_dog_000138.jpg,images/flickr_dog_000413.jpg,Eddy2,001,2021-08-23_12h16.30.758,Dog face experiment_0-249,2021.1.4,Win32,145.116819
,,,,,,q,1.3864,0,127,127,127,1,127,images/flickr_dog_000139.jpg,images/flickr_dog_000414.jpg,Eddy2,001,2021-08-23_12h16.30.758,Dog face experiment_0-249,2021.1.4,Win32,145.116819
,,,,,,q,1.8747,0,128,128,128,1,128,images/flickr_dog_000140.jpg,images/flickr_dog_000415.jpg,Eddy2,001,2021-08-23_12h16.30.758,Dog face experiment_0-249,2021.1.4,Win32,145.116819
,,,,,,p,1.1931,0,129,129,129,1,129,images/flickr_dog_000142.jpg,images/flickr_dog_000416.jpg,Eddy2,001,2021-08-23_12h16.30.758,Dog face experiment_0-249,2021.1.4,Win32,145.116819
,,,,,,p,2.4081,0,130,130,130,1,130,images/flickr_dog_000143.jpg,images/flickr_dog_000417.jpg,Eddy2,001,2021-08-23_12h16.30.758,Dog face experiment_0-249,2021.1.4,Win32,145.116819
,,,,,,p,2.1124,0,131,131,131,1,131,images/flickr_dog_000144.jpg,images/flickr_dog_000418.jpg,Eddy2,001,2021-08-23_12h16.30.758,Dog face experiment_0-249,2021.1.4,Win32,145.116819
,,,,,,p,3.1476,0,132,132,132,1,132,images/flickr_dog_000145.jpg,images/flickr_dog_000419.jpg,Eddy2,001,2021-08-23_12h16.30.758,Dog face experiment_0-249,2021.1.4,Win32,145.116819
,,,,,,q,1.4778,0,133,133,133,1,133,images/flickr_dog_000146.jpg,images/flickr_dog_000420.jpg,Eddy2,001,2021-08-23_12h16.30.758,Dog face experiment_0-249,2021.1.4,Win32,145.116819
,,,,,,p,1.1447,0,134,134,134,1,134,images/flickr_dog_000147.jpg,images/flickr_dog_000421.jpg,Eddy2,001,2021-08-23_12h16.30.758,Dog face experiment_0-249,2021.1.4,Win32,145.116819
,,,,,,q,0.9773,0,135,135,135,1,135,images/flickr_dog_000148.jpg,images/flickr_dog_000422.jpg,Eddy2,001,2021-08-23_12h16.30.758,Dog face experiment_0-249,2021.1.4,Win32,145.116819
,,,,,,q,1.5773,0,136,136,136,1,136,images/flickr_dog_000149.jpg,images/flickr_dog_000423.jpg,Eddy2,001,2021-08-23_12h16.30.758,Dog face experiment_0-249,2021.1.4,Win32,145.116819
,,,,,,q,1.131,0,137,137,137,1,137,images/flickr_dog_000150.jpg,images/flickr_dog_000424.jpg,Eddy2,001,2021-08-23_12h16.30.758,Dog face experiment_0-249,2021.1.4,Win32,145.116819
,,,,,,q,1.8604,0,138,138,138,1,138,images/flickr_dog_000151.jpg,images/flickr_dog_000426.jpg,Eddy2,001,2021-08-23_12h16.30.758,Dog face experiment_0-249,2021.1.4,Win32,145.116819
,,,,,,q,0.7804,0,139,139,139,1,139,images/flickr_dog_000152.jpg,images/flickr_dog_000427.jpg,Eddy2,001,2021-08-23_12h16.30.758,Dog face experiment_0-249,2021.1.4,Win32,145.116819
,,,,,,q,1.7411,0,140,140,140,1,140,images/flickr_dog_000153.jpg,images/flickr_dog_000428.jpg,Eddy2,001,2021-08-23_12h16.30.758,Dog face experiment_0-249,2021.1.4,Win32,145.116819
,,,,,,q,2.2784,0,141,141,141,1,141,images/flickr_dog_000154.jpg,images/flickr_dog_000429.jpg,Eddy2,001,2021-08-23_12h16.30.758,Dog face experiment_0-249,2021.1.4,Win32,145.116819
,,,,,,p,0.7975,0,142,142,142,1,142,images/flickr_dog_000155.jpg,images/flickr_dog_000430.jpg,Eddy2,001,2021-08-23_12h16.30.758,Dog face experiment_0-249,2021.1.4,Win32,145.116819
,,,,,,p,2.1444,0,143,143,143,1,143,images/flickr_dog_000156.jpg,images/flickr_dog_000431.jpg,Eddy2,001,2021-08-23_12h16.30.758,Dog face experiment_0-249,2021.1.4,Win32,145.116819
,,,,,,p,1.5506,0,144,144,144,1,144,images/flickr_dog_000158.jpg,images/flickr_dog_000432.jpg,Eddy2,001,2021-08-23_12h16.30.758,Dog face experiment_0-249,2021.1.4,Win32,145.116819
,,,,,,p,2.4021,0,145,145,145,1,145,images/flickr_dog_000159.jpg,images/flickr_dog_000433.jpg,Eddy2,001,2021-08-23_12h16.30.758,Dog face experiment_0-249,2021.1.4,Win32,145.116819
,,,,,,p,1.3238,0,146,146,146,1,146,images/flickr_dog_000161.jpg,images/flickr_dog_000434.jpg,Eddy2,001,2021-08-23_12h16.30.758,Dog face experiment_0-249,2021.1.4,Win32,145.116819
,,,,,,q,1.1375,0,147,147,147,1,147,images/flickr_dog_000162.jpg,images/flickr_dog_000435.jpg,Eddy2,001,2021-08-23_12h16.30.758,Dog face experiment_0-249,2021.1.4,Win32,145.116819
,,,,,,q,0.8615,0,148,148,148,1,148,images/flickr_dog_000163.jpg,images/flickr_dog_000436.jpg,Eddy2,001,2021-08-23_12h16.30.758,Dog face experiment_0-249,2021.1.4,Win32,145.116819
,,,,,,p,1.0355,0,149,149,149,1,149,images/flickr_dog_000164.jpg,images/flickr_dog_000437.jpg,Eddy2,001,2021-08-23_12h16.30.758,Dog face experiment_0-249,2021.1.4,Win32,145.116819
,,,,,,q,1.269,0,150,150,150,1,150,images/flickr_dog_000165.jpg,images/flickr_dog_000438.jpg,Eddy2,001,2021-08-23_12h16.30.758,Dog face experiment_0-249,2021.1.4,Win32,145.116819
,,,,,,p,0.9981,0,151,151,151,1,151,images/flickr_dog_000166.jpg,images/flickr_dog_000439.jpg,Eddy2,001,2021-08-23_12h16.30.758,Dog face experiment_0-249,2021.1.4,Win32,145.116819
,,,,,,q,2.6583,0,152,152,152,1,152,images/flickr_dog_000167.jpg,images/flickr_dog_000440.jpg,Eddy2,001,2021-08-23_12h16.30.758,Dog face experiment_0-249,2021.1.4,Win32,145.116819
,,,,,,p,4.7445,0,153,153,153,1,153,images/flickr_dog_000168.jpg,images/flickr_dog_000441.jpg,Eddy2,001,2021-08-23_12h16.30.758,Dog face experiment_0-249,2021.1.4,Win32,145.116819
,,,,,,p,1.0673,0,154,154,154,1,154,images/flickr_dog_000169.jpg,images/flickr_dog_000442.jpg,Eddy2,001,2021-08-23_12h16.30.758,Dog face experiment_0-249,2021.1.4,Win32,145.116819
,,,,,,q,1.0397,0,155,155,155,1,155,images/flickr_dog_000170.jpg,images/flickr_dog_000443.jpg,Eddy2,001,2021-08-23_12h16.30.758,Dog face experiment_0-249,2021.1.4,Win32,145.116819
,,,,,,q,7.5354,0,156,156,156,1,156,images/flickr_dog_000171.jpg,images/flickr_dog_000444.jpg,Eddy2,001,2021-08-23_12h16.30.758,Dog face experiment_0-249,2021.1.4,Win32,145.116819
,,,,,,p,2.5208,0,157,157,157,1,157,images/flickr_dog_000172.jpg,images/flickr_dog_000445.jpg,Eddy2,001,2021-08-23_12h16.30.758,Dog face experiment_0-249,2021.1.4,Win32,145.116819
,,,,,,q,1.0611,0,158,158,158,1,158,images/flickr_dog_000173.jpg,images/flickr_dog_000446.jpg,Eddy2,001,2021-08-23_12h16.30.758,Dog face experiment_0-249,2021.1.4,Win32,145.116819
,,,,,,q,0.9662,0,159,159,159,1,159,images/flickr_dog_000175.jpg,images/flickr_dog_000447.jpg,Eddy2,001,2021-08-23_12h16.30.758,Dog face experiment_0-249,2021.1.4,Win32,145.116819
,,,,,,q,2.0832,0,160,160,160,1,160,images/flickr_dog_000177.jpg,images/flickr_dog_000448.jpg,Eddy2,001,2021-08-23_12h16.30.758,Dog face experiment_0-249,2021.1.4,Win32,145.116819
,,,,,,q,6.0906,0,161,161,161,1,161,images/flickr_dog_000178.jpg,images/flickr_dog_000449.jpg,Eddy2,001,2021-08-23_12h16.30.758,Dog face experiment_0-249,2021.1.4,Win32,145.116819
,,,,,,p,2.178,0,162,162,162,1,162,images/flickr_dog_000179.jpg,images/flickr_dog_000450.jpg,Eddy2,001,2021-08-23_12h16.30.758,Dog face experiment_0-249,2021.1.4,Win32,145.116819
,,,,,,q,3.5198,0,163,163,163,1,163,images/flickr_dog_000180.jpg,images/flickr_dog_000451.jpg,Eddy2,001,2021-08-23_12h16.30.758,Dog face experiment_0-249,2021.1.4,Win32,145.116819
,,,,,,p,1.4879,0,164,164,164,1,164,images/flickr_dog_000181.jpg,images/flickr_dog_000453.jpg,Eddy2,001,2021-08-23_12h16.30.758,Dog face experiment_0-249,2021.1.4,Win32,145.116819
,,,,,,p,5.2444,0,165,165,165,1,165,images/flickr_dog_000182.jpg,images/flickr_dog_000455.jpg,Eddy2,001,2021-08-23_12h16.30.758,Dog face experiment_0-249,2021.1.4,Win32,145.116819
,,,,,,p,1.1163,0,166,166,166,1,166,images/flickr_dog_000183.jpg,images/flickr_dog_000456.jpg,Eddy2,001,2021-08-23_12h16.30.758,Dog face experiment_0-249,2021.1.4,Win32,145.116819
,,,,,,p,1.609,0,167,167,167,1,167,images/flickr_dog_000184.jpg,images/flickr_dog_000457.jpg,Eddy2,001,2021-08-23_12h16.30.758,Dog face experiment_0-249,2021.1.4,Win32,145.116819
,,,,,,p,7.9024,0,168,168,168,1,168,images/flickr_dog_000185.jpg,images/flickr_dog_000458.jpg,Eddy2,001,2021-08-23_12h16.30.758,Dog face experiment_0-249,2021.1.4,Win32,145.116819
,,,,,,p,1.5612,0,169,169,169,1,169,images/flickr_dog_000186.jpg,images/flickr_dog_000459.jpg,Eddy2,001,2021-08-23_12h16.30.758,Dog face experiment_0-249,2021.1.4,Win32,145.116819
,,,,,,q,1.9212,0,170,170,170,1,170,images/flickr_dog_000187.jpg,images/flickr_dog_000460.jpg,Eddy2,001,2021-08-23_12h16.30.758,Dog face experiment_0-249,2021.1.4,Win32,145.116819
,,,,,,q,1.9139,0,171,171,171,1,171,images/flickr_dog_000188.jpg,images/flickr_dog_000461.jpg,Eddy2,001,2021-08-23_12h16.30.758,Dog face experiment_0-249,2021.1.4,Win32,145.116819
,,,,,,q,0.916,0,172,172,172,1,172,images/flickr_dog_000189.jpg,images/flickr_dog_000462.jpg,Eddy2,001,2021-08-23_12h16.30.758,Dog face experiment_0-249,2021.1.4,Win32,145.116819
,,,,,,q,0.8113,0,173,173,173,1,173,images/flickr_dog_000190.jpg,images/flickr_dog_000463.jpg,Eddy2,001,2021-08-23_12h16.30.758,Dog face experiment_0-249,2021.1.4,Win32,145.116819
,,,,,,q,1.5272,0,174,174,174,1,174,images/flickr_dog_000191.jpg,images/flickr_dog_000464.jpg,Eddy2,001,2021-08-23_12h16.30.758,Dog face experiment_0-249,2021.1.4,Win32,145.116819
,,,,,,p,1.4177,0,175,175,175,1,175,images/flickr_dog_000192.jpg,images/flickr_dog_000465.jpg,Eddy2,001,2021-08-23_12h16.30.758,Dog face experiment_0-249,2021.1.4,Win32,145.116819
,,,,,,p,1.3637,0,176,176,176,1,176,images/flickr_dog_000194.jpg,images/flickr_dog_000466.jpg,Eddy2,001,2021-08-23_12h16.30.758,Dog face experiment_0-249,2021.1.4,Win32,145.116819
,,,,,,q,0.9496,0,177,177,177,1,177,images/flickr_dog_000195.jpg,images/flickr_dog_000469.jpg,Eddy2,001,2021-08-23_12h16.30.758,Dog face experiment_0-249,2021.1.4,Win32,145.116819
,,,,,,q,0.8739,0,178,178,178,1,178,images/flickr_dog_000196.jpg,images/flickr_dog_000470.jpg,Eddy2,001,2021-08-23_12h16.30.758,Dog face experiment_0-249,2021.1.4,Win32,145.116819
,,,,,,q,0.9169,0,179,179,179,1,179,images/flickr_dog_000197.jpg,images/flickr_dog_000471.jpg,Eddy2,001,2021-08-23_12h16.30.758,Dog face experiment_0-249,2021.1.4,Win32,145.116819
,,,,,,q,1.8831,0,180,180,180,1,180,images/flickr_dog_000199.jpg,images/flickr_dog_000472.jpg,Eddy2,001,2021-08-23_12h16.30.758,Dog face experiment_0-249,2021.1.4,Win32,145.116819
,,,,,,q,1.0353,0,181,181,181,1,181,images/flickr_dog_000200.jpg,images/flickr_dog_000473.jpg,Eddy2,001,2021-08-23_12h16.30.758,Dog face experiment_0-249,2021.1.4,Win32,145.116819
,,,,,,q,1.0904,0,182,182,182,1,182,images/flickr_dog_000201.jpg,images/flickr_dog_000474.jpg,Eddy2,001,2021-08-23_12h16.30.758,Dog face experiment_0-249,2021.1.4,Win32,145.116819
,,,,,,q,3.1716,0,183,183,183,1,183,images/flickr_dog_000202.jpg,images/flickr_dog_000475.jpg,Eddy2,001,2021-08-23_12h16.30.758,Dog face experiment_0-249,2021.1.4,Win32,145.116819
,,,,,,q,1.0631,0,184,184,184,1,184,images/flickr_dog_000203.jpg,images/flickr_dog_000476.jpg,Eddy2,001,2021-08-23_12h16.30.758,Dog face experiment_0-249,2021.1.4,Win32,145.116819
,,,,,,q,3.6371,0,185,185,185,1,185,images/flickr_dog_000204.jpg,images/flickr_dog_000477.jpg,Eddy2,001,2021-08-23_12h16.30.758,Dog face experiment_0-249,2021.1.4,Win32,145.116819
,,,,,,p,2.1773,0,186,186,186,1,186,images/flickr_dog_000206.jpg,images/flickr_dog_000478.jpg,Eddy2,001,2021-08-23_12h16.30.758,Dog face experiment_0-249,2021.1.4,Win32,145.116819
,,,,,,q,1.4371,0,187,187,187,1,187,images/flickr_dog_000207.jpg,images/flickr_dog_000479.jpg,Eddy2,001,2021-08-23_12h16.30.758,Dog face experiment_0-249,2021.1.4,Win32,145.116819
,,,,,,q,1.6362,0,188,188,188,1,188,images/flickr_dog_000208.jpg,images/flickr_dog_000480.jpg,Eddy2,001,2021-08-23_12h16.30.758,Dog face experiment_0-249,2021.1.4,Win32,145.116819
,,,,,,q,4.0022,0,189,189,189,1,189,images/flickr_dog_000209.jpg,images/flickr_dog_000481.jpg,Eddy2,001,2021-08-23_12h16.30.758,Dog face experiment_0-249,2021.1.4,Win32,145.116819
,,,,,,q,1.9562,0,190,190,190,1,190,images/flickr_dog_000210.jpg,images/flickr_dog_000482.jpg,Eddy2,001,2021-08-23_12h16.30.758,Dog face experiment_0-249,2021.1.4,Win32,145.116819
,,,,,,q,1.0623,0,191,191,191,1,191,images/flickr_dog_000211.jpg,images/flickr_dog_000483.jpg,Eddy2,001,2021-08-23_12h16.30.758,Dog face experiment_0-249,2021.1.4,Win32,145.116819
,,,,,,p,2.4357,0,192,192,192,1,192,images/flickr_dog_000213.jpg,images/flickr_dog_000484.jpg,Eddy2,001,2021-08-23_12h16.30.758,Dog face experiment_0-249,2021.1.4,Win32,145.116819
,,,,,,p,0.9228,0,193,193,193,1,193,images/flickr_dog_000214.jpg,images/flickr_dog_000485.jpg,Eddy2,001,2021-08-23_12h16.30.758,Dog face experiment_0-249,2021.1.4,Win32,145.116819
,,,,,,p,1.6381,0,194,194,194,1,194,images/flickr_dog_000215.jpg,images/flickr_dog_000486.jpg,Eddy2,001,2021-08-23_12h16.30.758,Dog face experiment_0-249,2021.1.4,Win32,145.116819
,,,,,,q,1.2913,0,195,195,195,1,195,images/flickr_dog_000218.jpg,images/flickr_dog_000487.jpg,Eddy2,001,2021-08-23_12h16.30.758,Dog face experiment_0-249,2021.1.4,Win32,145.116819
,,,,,,q,1.7442,0,196,196,196,1,196,images/flickr_dog_000219.jpg,images/flickr_dog_000488.jpg,Eddy2,001,2021-08-23_12h16.30.758,Dog face experiment_0-249,2021.1.4,Win32,145.116819
,,,,,,q,1.2417,0,197,197,197,1,197,images/flickr_dog_000220.jpg,images/flickr_dog_000490.jpg,Eddy2,001,2021-08-23_12h16.30.758,Dog face experiment_0-249,2021.1.4,Win32,145.116819
,,,,,,p,4.0269,0,198,198,198,1,198,images/flickr_dog_000221.jpg,images/flickr_dog_000492.jpg,Eddy2,001,2021-08-23_12h16.30.758,Dog face experiment_0-249,2021.1.4,Win32,145.116819
,,,,,,q,1.6506,0,199,199,199,1,199,images/flickr_dog_000222.jpg,images/flickr_dog_000493.jpg,Eddy2,001,2021-08-23_12h16.30.758,Dog face experiment_0-249,2021.1.4,Win32,145.116819
,,,,,,p,1.4095,0,200,200,200,1,200,images/flickr_dog_000223.jpg,images/flickr_dog_000494.jpg,Eddy2,001,2021-08-23_12h16.30.758,Dog face experiment_0-249,2021.1.4,Win32,145.116819
,,,,,,p,0.9918,0,201,201,201,1,201,images/flickr_dog_000225.jpg,images/flickr_dog_000496.jpg,Eddy2,001,2021-08-23_12h16.30.758,Dog face experiment_0-249,2021.1.4,Win32,145.116819
,,,,,,p,1.665,0,202,202,202,1,202,images/flickr_dog_000226.jpg,images/flickr_dog_000497.jpg,Eddy2,001,2021-08-23_12h16.30.758,Dog face experiment_0-249,2021.1.4,Win32,145.116819
,,,,,,p,1.7902,0,203,203,203,1,203,images/flickr_dog_000227.jpg,images/flickr_dog_000498.jpg,Eddy2,001,2021-08-23_12h16.30.758,Dog face experiment_0-249,2021.1.4,Win32,145.116819
,,,,,,p,1.3469,0,204,204,204,1,204,images/flickr_dog_000228.jpg,images/flickr_dog_000499.jpg,Eddy2,001,2021-08-23_12h16.30.758,Dog face experiment_0-249,2021.1.4,Win32,145.116819
,,,,,,p,1.2724,0,205,205,205,1,205,images/flickr_dog_000229.jpg,images/flickr_dog_000500.jpg,Eddy2,001,2021-08-23_12h16.30.758,Dog face experiment_0-249,2021.1.4,Win32,145.116819
,,,,,,q,1.0117,0,206,206,206,1,206,images/flickr_dog_000230.jpg,images/flickr_dog_000501.jpg,Eddy2,001,2021-08-23_12h16.30.758,Dog face experiment_0-249,2021.1.4,Win32,145.116819
,,,,,,q,1.5615,0,207,207,207,1,207,images/flickr_dog_000231.jpg,images/flickr_dog_000502.jpg,Eddy2,001,2021-08-23_12h16.30.758,Dog face experiment_0-249,2021.1.4,Win32,145.116819
,,,,,,q,1.9767,0,208,208,208,1,208,images/flickr_dog_000232.jpg,images/flickr_dog_000503.jpg,Eddy2,001,2021-08-23_12h16.30.758,Dog face experiment_0-249,2021.1.4,Win32,145.116819
,,,,,,q,1.4869,0,209,209,209,1,209,images/flickr_dog_000233.jpg,images/flickr_dog_000504.jpg,Eddy2,001,2021-08-23_12h16.30.758,Dog face experiment_0-249,2021.1.4,Win32,145.116819
,,,,,,q,1.353,0,210,210,210,1,210,images/flickr_dog_000234.jpg,images/flickr_dog_000505.jpg,Eddy2,001,2021-08-23_12h16.30.758,Dog face experiment_0-249,2021.1.4,Win32,145.116819
,,,,,,p,1.0747,0,211,211,211,1,211,images/flickr_dog_000235.jpg,images/flickr_dog_000506.jpg,Eddy2,001,2021-08-23_12h16.30.758,Dog face experiment_0-249,2021.1.4,Win32,145.116819
,,,,,,q,1.1511,0,212,212,212,1,212,images/flickr_dog_000236.jpg,images/flickr_dog_000507.jpg,Eddy2,001,2021-08-23_12h16.30.758,Dog face experiment_0-249,2021.1.4,Win32,145.116819
,,,,,,p,3.0201,0,213,213,213,1,213,images/flickr_dog_000237.jpg,images/flickr_dog_000508.jpg,Eddy2,001,2021-08-23_12h16.30.758,Dog face experiment_0-249,2021.1.4,Win32,145.116819
,,,,,,q,1.1508,0,214,214,214,1,214,images/flickr_dog_000238.jpg,images/flickr_dog_000509.jpg,Eddy2,001,2021-08-23_12h16.30.758,Dog face experiment_0-249,2021.1.4,Win32,145.116819
,,,,,,q,1.0825,0,215,215,215,1,215,images/flickr_dog_000239.jpg,images/flickr_dog_000510.jpg,Eddy2,001,2021-08-23_12h16.30.758,Dog face experiment_0-249,2021.1.4,Win32,145.116819
,,,,,,q,1.286,0,216,216,216,1,216,images/flickr_dog_000240.jpg,images/flickr_dog_000511.jpg,Eddy2,001,2021-08-23_12h16.30.758,Dog face experiment_0-249,2021.1.4,Win32,145.116819
,,,,,,p,2.2351,0,217,217,217,1,217,images/flickr_dog_000241.jpg,images/flickr_dog_000512.jpg,Eddy2,001,2021-08-23_12h16.30.758,Dog face experiment_0-249,2021.1.4,Win32,145.116819
,,,,,,p,2.9377,0,218,218,218,1,218,images/flickr_dog_000242.jpg,images/flickr_dog_000513.jpg,Eddy2,001,2021-08-23_12h16.30.758,Dog face experiment_0-249,2021.1.4,Win32,145.116819
,,,,,,p,2.9084,0,219,219,219,1,219,images/flickr_dog_000243.jpg,images/flickr_dog_000514.jpg,Eddy2,001,2021-08-23_12h16.30.758,Dog face experiment_0-249,2021.1.4,Win32,145.116819
,,,,,,p,1.4532,0,220,220,220,1,220,images/flickr_dog_000244.jpg,images/flickr_dog_000515.jpg,Eddy2,001,2021-08-23_12h16.30.758,Dog face experiment_0-249,2021.1.4,Win32,145.116819
,,,,,,p,1.2914,0,221,221,221,1,221,images/flickr_dog_000247.jpg,images/flickr_dog_000516.jpg,Eddy2,001,2021-08-23_12h16.30.758,Dog face experiment_0-249,2021.1.4,Win32,145.116819
,,,,,,p,0.9718,0,222,222,222,1,222,images/flickr_dog_000248.jpg,images/flickr_dog_000517.jpg,Eddy2,001,2021-08-23_12h16.30.758,Dog face experiment_0-249,2021.1.4,Win32,145.116819
,,,,,,q,2.4986,0,223,223,223,1,223,images/flickr_dog_000249.jpg,images/flickr_dog_000518.jpg,Eddy2,001,2021-08-23_12h16.30.758,Dog face experiment_0-249,2021.1.4,Win32,145.116819
,,,,,,p,1.2975,0,224,224,224,1,224,images/flickr_dog_000250.jpg,images/flickr_dog_000519.jpg,Eddy2,001,2021-08-23_12h16.30.758,Dog face experiment_0-249,2021.1.4,Win32,145.116819
,,,,,,q,1.9528,0,225,225,225,1,225,images/flickr_dog_000251.jpg,images/flickr_dog_000520.jpg,Eddy2,001,2021-08-23_12h16.30.758,Dog face experiment_0-249,2021.1.4,Win32,145.116819
,,,,,,q,2.0991,0,226,226,226,1,226,images/flickr_dog_000253.jpg,images/flickr_dog_000522.jpg,Eddy2,001,2021-08-23_12h16.30.758,Dog face experiment_0-249,2021.1.4,Win32,145.116819
,,,,,,p,1.1315,0,227,227,227,1,227,images/flickr_dog_000255.jpg,images/flickr_dog_000523.jpg,Eddy2,001,2021-08-23_12h16.30.758,Dog face experiment_0-249,2021.1.4,Win32,145.116819
,,,,,,p,1.6087,0,228,228,228,1,228,images/flickr_dog_000256.jpg,images/flickr_dog_000524.jpg,Eddy2,001,2021-08-23_12h16.30.758,Dog face experiment_0-249,2021.1.4,Win32,145.116819
,,,,,,p,1.1925,0,229,229,229,1,229,images/flickr_dog_000257.jpg,images/flickr_dog_000525.jpg,Eddy2,001,2021-08-23_12h16.30.758,Dog face experiment_0-249,2021.1.4,Win32,145.116819
,,,,,,p,3.7838,0,230,230,230,1,230,images/flickr_dog_000259.jpg,images/flickr_dog_000526.jpg,Eddy2,001,2021-08-23_12h16.30.758,Dog face experiment_0-249,2021.1.4,Win32,145.116819
,,,,,,q,2.5692,0,231,231,231,1,231,images/flickr_dog_000260.jpg,images/flickr_dog_000527.jpg,Eddy2,001,2021-08-23_12h16.30.758,Dog face experiment_0-249,2021.1.4,Win32,145.116819
,,,,,,q,1.922,0,232,232,232,1,232,images/flickr_dog_000261.jpg,images/flickr_dog_000528.jpg,Eddy2,001,2021-08-23_12h16.30.758,Dog face experiment_0-249,2021.1.4,Win32,145.116819
,,,,,,q,1.0198,0,233,233,233,1,233,images/flickr_dog_000262.jpg,images/flickr_dog_000529.jpg,Eddy2,001,2021-08-23_12h16.30.758,Dog face experiment_0-249,2021.1.4,Win32,145.116819
,,,,,,p,0.7903,0,234,234,234,1,234,images/flickr_dog_000263.jpg,images/flickr_dog_000530.jpg,Eddy2,001,2021-08-23_12h16.30.758,Dog face experiment_0-249,2021.1.4,Win32,145.116819
,,,,,,p,1.3452,0,235,235,235,1,235,images/flickr_dog_000264.jpg,images/flickr_dog_000531.jpg,Eddy2,001,2021-08-23_12h16.30.758,Dog face experiment_0-249,2021.1.4,Win32,145.116819
,,,,,,q,1.504,0,236,236,236,1,236,images/flickr_dog_000265.jpg,images/flickr_dog_000532.jpg,Eddy2,001,2021-08-23_12h16.30.758,Dog face experiment_0-249,2021.1.4,Win32,145.116819
,,,,,,q,1.1515,0,237,237,237,1,237,images/flickr_dog_000266.jpg,images/flickr_dog_000533.jpg,Eddy2,001,2021-08-23_12h16.30.758,Dog face experiment_0-249,2021.1.4,Win32,145.116819
,,,,,,q,1.6569,0,238,238,238,1,238,images/flickr_dog_000267.jpg,images/flickr_dog_000534.jpg,Eddy2,001,2021-08-23_12h16.30.758,Dog face experiment_0-249,2021.1.4,Win32,145.116819
,,,,,,q,0.863,0,239,239,239,1,239,images/flickr_dog_000268.jpg,images/flickr_dog_000535.jpg,Eddy2,001,2021-08-23_12h16.30.758,Dog face experiment_0-249,2021.1.4,Win32,145.116819
,,,,,,q,1.3321,0,240,240,240,1,240,images/flickr_dog_000269.jpg,images/flickr_dog_000536.jpg,Eddy2,001,2021-08-23_12h16.30.758,Dog face experiment_0-249,2021.1.4,Win32,145.116819
,,,,,,p,6.1175,0,241,241,241,1,241,images/flickr_dog_000270.jpg,images/flickr_dog_000537.jpg,Eddy2,001,2021-08-23_12h16.30.758,Dog face experiment_0-249,2021.1.4,Win32,145.116819
,,,,,,q,2.4212,0,242,242,242,1,242,images/flickr_dog_000271.jpg,images/flickr_dog_000539.jpg,Eddy2,001,2021-08-23_12h16.30.758,Dog face experiment_0-249,2021.1.4,Win32,145.116819
,,,,,,p,7.2977,0,243,243,243,1,243,images/flickr_dog_000272.jpg,images/flickr_dog_000540.jpg,Eddy2,001,2021-08-23_12h16.30.758,Dog face experiment_0-249,2021.1.4,Win32,145.116819
,,,,,,p,2.4281,0,244,244,244,1,244,images/flickr_dog_000273.jpg,images/flickr_dog_000541.jpg,Eddy2,001,2021-08-23_12h16.30.758,Dog face experiment_0-249,2021.1.4,Win32,145.116819
,,,,,,p,1.7634,0,245,245,245,1,245,images/flickr_dog_000274.jpg,images/flickr_dog_000542.jpg,Eddy2,001,2021-08-23_12h16.30.758,Dog face experiment_0-249,2021.1.4,Win32,145.116819
,,,,,,q,0.8957,0,246,246,246,1,246,images/flickr_dog_000275.jpg,images/flickr_dog_000543.jpg,Eddy2,001,2021-08-23_12h16.30.758,Dog face experiment_0-249,2021.1.4,Win32,145.116819
,,,,,,q,1.4179,0,247,247,247,1,247,images/flickr_dog_000276.jpg,images/flickr_dog_000544.jpg,Eddy2,001,2021-08-23_12h16.30.758,Dog face experiment_0-249,2021.1.4,Win32,145.116819
,,,,,,q,2.4773,0,248,248,248,1,248,images/flickr_dog_000277.jpg,images/flickr_dog_000546.jpg,Eddy2,001,2021-08-23_12h16.30.758,Dog face experiment_0-249,2021.1.4,Win32,145.116819
,,,,,,p,1.1594,0,249,249,249,1,249,images/flickr_dog_000278.jpg,images/flickr_dog_000547.jpg,Eddy2,001,2021-08-23_12h16.30.758,Dog face experiment_0-249,2021.1.4,Win32,145.116819
