key_resp.keys,key_resp.rt,key_resp_2.keys,key_resp_2.rt,key_resp_3.keys,key_resp_3.rt,key_resp_4.keys,key_resp_4.rt,trials.thisRepN,trials.thisTrialN,trials.thisN,trials.thisIndex,trials.ran,trail_nums,img1,img2,participant,session,date,expName,psychopyVersion,OS,frameRate
space,2.0823,space,0.7294,space,0.6389,q,6.6954,0,0,0,0,1,0,images/flickr_dog_000002.jpg,images/flickr_dog_000279.jpg,Eddy,001,2021-08-03_16h50.57.512,Dog face experiment_0-249,2021.1.4,Win32,145.0957632
,,,,,,p,0.8929,0,1,1,1,1,1,images/flickr_dog_000003.jpg,images/flickr_dog_000280.jpg,Eddy,001,2021-08-03_16h50.57.512,Dog face experiment_0-249,2021.1.4,Win32,145.0957632
,,,,,,p,1.3453,0,2,2,2,1,2,images/flickr_dog_000004.jpg,images/flickr_dog_000281.jpg,Eddy,001,2021-08-03_16h50.57.512,Dog face experiment_0-249,2021.1.4,Win32,145.0957632
,,,,,,q,1.3051,0,3,3,3,1,3,images/flickr_dog_000005.jpg,images/flickr_dog_000282.jpg,Eddy,001,2021-08-03_16h50.57.512,Dog face experiment_0-249,2021.1.4,Win32,145.0957632
,,,,,,p,2.7235,0,4,4,4,1,4,images/flickr_dog_000006.jpg,images/flickr_dog_000283.jpg,Eddy,001,2021-08-03_16h50.57.512,Dog face experiment_0-249,2021.1.4,Win32,145.0957632
,,,,,,p,0.9064,0,5,5,5,1,5,images/flickr_dog_000007.jpg,images/flickr_dog_000284.jpg,Eddy,001,2021-08-03_16h50.57.512,Dog face experiment_0-249,2021.1.4,Win32,145.0957632
,,,,,,p,1.7953,0,6,6,6,1,6,images/flickr_dog_000008.jpg,images/flickr_dog_000285.jpg,Eddy,001,2021-08-03_16h50.57.512,Dog face experiment_0-249,2021.1.4,Win32,145.0957632
,,,,,,p,2.0613,0,7,7,7,1,7,images/flickr_dog_000009.jpg,images/flickr_dog_000286.jpg,Eddy,001,2021-08-03_16h50.57.512,Dog face experiment_0-249,2021.1.4,Win32,145.0957632
,,,,,,p,5.0131,0,8,8,8,1,8,images/flickr_dog_000010.jpg,images/flickr_dog_000287.jpg,Eddy,001,2021-08-03_16h50.57.512,Dog face experiment_0-249,2021.1.4,Win32,145.0957632
,,,,,,q,1.7478,0,9,9,9,1,9,images/flickr_dog_000011.jpg,images/flickr_dog_000288.jpg,Eddy,001,2021-08-03_16h50.57.512,Dog face experiment_0-249,2021.1.4,Win32,145.0957632
,,,,,,p,1.3072,0,10,10,10,1,10,images/flickr_dog_000012.jpg,images/flickr_dog_000289.jpg,Eddy,001,2021-08-03_16h50.57.512,Dog face experiment_0-249,2021.1.4,Win32,145.0957632
,,,,,,p,3.0263,0,11,11,11,1,11,images/flickr_dog_000013.jpg,images/flickr_dog_000290.jpg,Eddy,001,2021-08-03_16h50.57.512,Dog face experiment_0-249,2021.1.4,Win32,145.0957632
,,,,,,p,1.5116,0,12,12,12,1,12,images/flickr_dog_000014.jpg,images/flickr_dog_000291.jpg,Eddy,001,2021-08-03_16h50.57.512,Dog face experiment_0-249,2021.1.4,Win32,145.0957632
,,,,,,p,2.0022,0,13,13,13,1,13,images/flickr_dog_000015.jpg,images/flickr_dog_000292.jpg,Eddy,001,2021-08-03_16h50.57.512,Dog face experiment_0-249,2021.1.4,Win32,145.0957632
,,,,,,p,2.4803,0,14,14,14,1,14,images/flickr_dog_000016.jpg,images/flickr_dog_000293.jpg,Eddy,001,2021-08-03_16h50.57.512,Dog face experiment_0-249,2021.1.4,Win32,145.0957632
,,,,,,q,2.1873,0,15,15,15,1,15,images/flickr_dog_000017.jpg,images/flickr_dog_000294.jpg,Eddy,001,2021-08-03_16h50.57.512,Dog face experiment_0-249,2021.1.4,Win32,145.0957632
,,,,,,p,2.6468,0,16,16,16,1,16,images/flickr_dog_000018.jpg,images/flickr_dog_000295.jpg,Eddy,001,2021-08-03_16h50.57.512,Dog face experiment_0-249,2021.1.4,Win32,145.0957632
,,,,,,p,1.6232,0,17,17,17,1,17,images/flickr_dog_000019.jpg,images/flickr_dog_000296.jpg,Eddy,001,2021-08-03_16h50.57.512,Dog face experiment_0-249,2021.1.4,Win32,145.0957632
,,,,,,p,2.2367,0,18,18,18,1,18,images/flickr_dog_000020.jpg,images/flickr_dog_000297.jpg,Eddy,001,2021-08-03_16h50.57.512,Dog face experiment_0-249,2021.1.4,Win32,145.0957632
,,,,,,p,3.3369,0,19,19,19,1,19,images/flickr_dog_000021.jpg,images/flickr_dog_000299.jpg,Eddy,001,2021-08-03_16h50.57.512,Dog face experiment_0-249,2021.1.4,Win32,145.0957632
,,,,,,p,1.7504,0,20,20,20,1,20,images/flickr_dog_000022.jpg,images/flickr_dog_000300.jpg,Eddy,001,2021-08-03_16h50.57.512,Dog face experiment_0-249,2021.1.4,Win32,145.0957632
,,,,,,p,1.4239,0,21,21,21,1,21,images/flickr_dog_000023.jpg,images/flickr_dog_000301.jpg,Eddy,001,2021-08-03_16h50.57.512,Dog face experiment_0-249,2021.1.4,Win32,145.0957632
,,,,,,q,1.2095,0,22,22,22,1,22,images/flickr_dog_000024.jpg,images/flickr_dog_000302.jpg,Eddy,001,2021-08-03_16h50.57.512,Dog face experiment_0-249,2021.1.4,Win32,145.0957632
,,,,,,p,1.6444,0,23,23,23,1,23,images/flickr_dog_000025.jpg,images/flickr_dog_000303.jpg,Eddy,001,2021-08-03_16h50.57.512,Dog face experiment_0-249,2021.1.4,Win32,145.0957632
,,,,,,p,1.8661,0,24,24,24,1,24,images/flickr_dog_000026.jpg,images/flickr_dog_000304.jpg,Eddy,001,2021-08-03_16h50.57.512,Dog face experiment_0-249,2021.1.4,Win32,145.0957632
,,,,,,q,1.9745,0,25,25,25,1,25,images/flickr_dog_000027.jpg,images/flickr_dog_000305.jpg,Eddy,001,2021-08-03_16h50.57.512,Dog face experiment_0-249,2021.1.4,Win32,145.0957632
,,,,,,p,1.1252,0,26,26,26,1,26,images/flickr_dog_000028.jpg,images/flickr_dog_000306.jpg,Eddy,001,2021-08-03_16h50.57.512,Dog face experiment_0-249,2021.1.4,Win32,145.0957632
,,,,,,q,2.4006,0,27,27,27,1,27,images/flickr_dog_000029.jpg,images/flickr_dog_000307.jpg,Eddy,001,2021-08-03_16h50.57.512,Dog face experiment_0-249,2021.1.4,Win32,145.0957632
,,,,,,q,1.424,0,28,28,28,1,28,images/flickr_dog_000030.jpg,images/flickr_dog_000308.jpg,Eddy,001,2021-08-03_16h50.57.512,Dog face experiment_0-249,2021.1.4,Win32,145.0957632
,,,,,,p,1.0361,0,29,29,29,1,29,images/flickr_dog_000031.jpg,images/flickr_dog_000309.jpg,Eddy,001,2021-08-03_16h50.57.512,Dog face experiment_0-249,2021.1.4,Win32,145.0957632
,,,,,,p,1.5527,0,30,30,30,1,30,images/flickr_dog_000032.jpg,images/flickr_dog_000310.jpg,Eddy,001,2021-08-03_16h50.57.512,Dog face experiment_0-249,2021.1.4,Win32,145.0957632
,,,,,,q,5.6725,0,31,31,31,1,31,images/flickr_dog_000033.jpg,images/flickr_dog_000311.jpg,Eddy,001,2021-08-03_16h50.57.512,Dog face experiment_0-249,2021.1.4,Win32,145.0957632
,,,,,,q,1.5757,0,32,32,32,1,32,images/flickr_dog_000034.jpg,images/flickr_dog_000312.jpg,Eddy,001,2021-08-03_16h50.57.512,Dog face experiment_0-249,2021.1.4,Win32,145.0957632
,,,,,,p,0.9009,0,33,33,33,1,33,images/flickr_dog_000035.jpg,images/flickr_dog_000314.jpg,Eddy,001,2021-08-03_16h50.57.512,Dog face experiment_0-249,2021.1.4,Win32,145.0957632
,,,,,,q,1.3192,0,34,34,34,1,34,images/flickr_dog_000036.jpg,images/flickr_dog_000315.jpg,Eddy,001,2021-08-03_16h50.57.512,Dog face experiment_0-249,2021.1.4,Win32,145.0957632
,,,,,,p,2.8454,0,35,35,35,1,35,images/flickr_dog_000037.jpg,images/flickr_dog_000316.jpg,Eddy,001,2021-08-03_16h50.57.512,Dog face experiment_0-249,2021.1.4,Win32,145.0957632
,,,,,,q,1.0906,0,36,36,36,1,36,images/flickr_dog_000038.jpg,images/flickr_dog_000318.jpg,Eddy,001,2021-08-03_16h50.57.512,Dog face experiment_0-249,2021.1.4,Win32,145.0957632
,,,,,,q,1.9787,0,37,37,37,1,37,images/flickr_dog_000039.jpg,images/flickr_dog_000319.jpg,Eddy,001,2021-08-03_16h50.57.512,Dog face experiment_0-249,2021.1.4,Win32,145.0957632
,,,,,,p,0.8819,0,38,38,38,1,38,images/flickr_dog_000040.jpg,images/flickr_dog_000320.jpg,Eddy,001,2021-08-03_16h50.57.512,Dog face experiment_0-249,2021.1.4,Win32,145.0957632
,,,,,,p,1.2894,0,39,39,39,1,39,images/flickr_dog_000041.jpg,images/flickr_dog_000321.jpg,Eddy,001,2021-08-03_16h50.57.512,Dog face experiment_0-249,2021.1.4,Win32,145.0957632
,,,,,,q,1.064,0,40,40,40,1,40,images/flickr_dog_000042.jpg,images/flickr_dog_000322.jpg,Eddy,001,2021-08-03_16h50.57.512,Dog face experiment_0-249,2021.1.4,Win32,145.0957632
,,,,,,q,1.7964,0,41,41,41,1,41,images/flickr_dog_000044.jpg,images/flickr_dog_000323.jpg,Eddy,001,2021-08-03_16h50.57.512,Dog face experiment_0-249,2021.1.4,Win32,145.0957632
,,,,,,p,1.841,0,42,42,42,1,42,images/flickr_dog_000046.jpg,images/flickr_dog_000324.jpg,Eddy,001,2021-08-03_16h50.57.512,Dog face experiment_0-249,2021.1.4,Win32,145.0957632
,,,,,,q,1.7208,0,43,43,43,1,43,images/flickr_dog_000047.jpg,images/flickr_dog_000325.jpg,Eddy,001,2021-08-03_16h50.57.512,Dog face experiment_0-249,2021.1.4,Win32,145.0957632
,,,,,,q,1.633,0,44,44,44,1,44,images/flickr_dog_000048.jpg,images/flickr_dog_000326.jpg,Eddy,001,2021-08-03_16h50.57.512,Dog face experiment_0-249,2021.1.4,Win32,145.0957632
,,,,,,q,1.9287,0,45,45,45,1,45,images/flickr_dog_000049.jpg,images/flickr_dog_000327.jpg,Eddy,001,2021-08-03_16h50.57.512,Dog face experiment_0-249,2021.1.4,Win32,145.0957632
,,,,,,q,2.2229,0,46,46,46,1,46,images/flickr_dog_000050.jpg,images/flickr_dog_000328.jpg,Eddy,001,2021-08-03_16h50.57.512,Dog face experiment_0-249,2021.1.4,Win32,145.0957632
,,,,,,p,1.8242,0,47,47,47,1,47,images/flickr_dog_000051.jpg,images/flickr_dog_000329.jpg,Eddy,001,2021-08-03_16h50.57.512,Dog face experiment_0-249,2021.1.4,Win32,145.0957632
,,,,,,q,1.1935,0,48,48,48,1,48,images/flickr_dog_000052.jpg,images/flickr_dog_000330.jpg,Eddy,001,2021-08-03_16h50.57.512,Dog face experiment_0-249,2021.1.4,Win32,145.0957632
,,,,,,q,1.3453,0,49,49,49,1,49,images/flickr_dog_000053.jpg,images/flickr_dog_000331.jpg,Eddy,001,2021-08-03_16h50.57.512,Dog face experiment_0-249,2021.1.4,Win32,145.0957632
,,,,,,q,1.2372,0,50,50,50,1,50,images/flickr_dog_000055.jpg,images/flickr_dog_000333.jpg,Eddy,001,2021-08-03_16h50.57.512,Dog face experiment_0-249,2021.1.4,Win32,145.0957632
,,,,,,q,2.0193,0,51,51,51,1,51,images/flickr_dog_000056.jpg,images/flickr_dog_000335.jpg,Eddy,001,2021-08-03_16h50.57.512,Dog face experiment_0-249,2021.1.4,Win32,145.0957632
,,,,,,q,1.1789,0,52,52,52,1,52,images/flickr_dog_000057.jpg,images/flickr_dog_000336.jpg,Eddy,001,2021-08-03_16h50.57.512,Dog face experiment_0-249,2021.1.4,Win32,145.0957632
,,,,,,p,1.7901,0,53,53,53,1,53,images/flickr_dog_000058.jpg,images/flickr_dog_000337.jpg,Eddy,001,2021-08-03_16h50.57.512,Dog face experiment_0-249,2021.1.4,Win32,145.0957632
,,,,,,p,1.4352,0,54,54,54,1,54,images/flickr_dog_000061.jpg,images/flickr_dog_000338.jpg,Eddy,001,2021-08-03_16h50.57.512,Dog face experiment_0-249,2021.1.4,Win32,145.0957632
,,,,,,p,1.1506,0,55,55,55,1,55,images/flickr_dog_000062.jpg,images/flickr_dog_000339.jpg,Eddy,001,2021-08-03_16h50.57.512,Dog face experiment_0-249,2021.1.4,Win32,145.0957632
,,,,,,q,1.1578,0,56,56,56,1,56,images/flickr_dog_000063.jpg,images/flickr_dog_000340.jpg,Eddy,001,2021-08-03_16h50.57.512,Dog face experiment_0-249,2021.1.4,Win32,145.0957632
,,,,,,q,3.2138,0,57,57,57,1,57,images/flickr_dog_000064.jpg,images/flickr_dog_000341.jpg,Eddy,001,2021-08-03_16h50.57.512,Dog face experiment_0-249,2021.1.4,Win32,145.0957632
,,,,,,q,1.5284,0,58,58,58,1,58,images/flickr_dog_000065.jpg,images/flickr_dog_000342.jpg,Eddy,001,2021-08-03_16h50.57.512,Dog face experiment_0-249,2021.1.4,Win32,145.0957632
,,,,,,p,1.4461,0,59,59,59,1,59,images/flickr_dog_000066.jpg,images/flickr_dog_000343.jpg,Eddy,001,2021-08-03_16h50.57.512,Dog face experiment_0-249,2021.1.4,Win32,145.0957632
,,,,,,p,1.6671,0,60,60,60,1,60,images/flickr_dog_000067.jpg,images/flickr_dog_000344.jpg,Eddy,001,2021-08-03_16h50.57.512,Dog face experiment_0-249,2021.1.4,Win32,145.0957632
,,,,,,q,1.2998,0,61,61,61,1,61,images/flickr_dog_000068.jpg,images/flickr_dog_000345.jpg,Eddy,001,2021-08-03_16h50.57.512,Dog face experiment_0-249,2021.1.4,Win32,145.0957632
,,,,,,q,1.276,0,62,62,62,1,62,images/flickr_dog_000069.jpg,images/flickr_dog_000346.jpg,Eddy,001,2021-08-03_16h50.57.512,Dog face experiment_0-249,2021.1.4,Win32,145.0957632
,,,,,,p,0.8913,0,63,63,63,1,63,images/flickr_dog_000070.jpg,images/flickr_dog_000347.jpg,Eddy,001,2021-08-03_16h50.57.512,Dog face experiment_0-249,2021.1.4,Win32,145.0957632
,,,,,,q,1.005,0,64,64,64,1,64,images/flickr_dog_000071.jpg,images/flickr_dog_000348.jpg,Eddy,001,2021-08-03_16h50.57.512,Dog face experiment_0-249,2021.1.4,Win32,145.0957632
,,,,,,p,0.9923,0,65,65,65,1,65,images/flickr_dog_000072.jpg,images/flickr_dog_000349.jpg,Eddy,001,2021-08-03_16h50.57.512,Dog face experiment_0-249,2021.1.4,Win32,145.0957632
,,,,,,p,1.8269,0,66,66,66,1,66,images/flickr_dog_000073.jpg,images/flickr_dog_000350.jpg,Eddy,001,2021-08-03_16h50.57.512,Dog face experiment_0-249,2021.1.4,Win32,145.0957632
,,,,,,q,1.8353,0,67,67,67,1,67,images/flickr_dog_000074.jpg,images/flickr_dog_000351.jpg,Eddy,001,2021-08-03_16h50.57.512,Dog face experiment_0-249,2021.1.4,Win32,145.0957632
,,,,,,q,2.6599,0,68,68,68,1,68,images/flickr_dog_000075.jpg,images/flickr_dog_000352.jpg,Eddy,001,2021-08-03_16h50.57.512,Dog face experiment_0-249,2021.1.4,Win32,145.0957632
,,,,,,p,0.863,0,69,69,69,1,69,images/flickr_dog_000076.jpg,images/flickr_dog_000353.jpg,Eddy,001,2021-08-03_16h50.57.512,Dog face experiment_0-249,2021.1.4,Win32,145.0957632
,,,,,,q,1.5511,0,70,70,70,1,70,images/flickr_dog_000077.jpg,images/flickr_dog_000354.jpg,Eddy,001,2021-08-03_16h50.57.512,Dog face experiment_0-249,2021.1.4,Win32,145.0957632
,,,,,,q,2.0131,0,71,71,71,1,71,images/flickr_dog_000078.jpg,images/flickr_dog_000355.jpg,Eddy,001,2021-08-03_16h50.57.512,Dog face experiment_0-249,2021.1.4,Win32,145.0957632
,,,,,,p,1.7441,0,72,72,72,1,72,images/flickr_dog_000080.jpg,images/flickr_dog_000356.jpg,Eddy,001,2021-08-03_16h50.57.512,Dog face experiment_0-249,2021.1.4,Win32,145.0957632
,,,,,,p,1.0681,0,73,73,73,1,73,images/flickr_dog_000081.jpg,images/flickr_dog_000357.jpg,Eddy,001,2021-08-03_16h50.57.512,Dog face experiment_0-249,2021.1.4,Win32,145.0957632
,,,,,,q,1.5362,0,74,74,74,1,74,images/flickr_dog_000082.jpg,images/flickr_dog_000358.jpg,Eddy,001,2021-08-03_16h50.57.512,Dog face experiment_0-249,2021.1.4,Win32,145.0957632
,,,,,,p,1.2059,0,75,75,75,1,75,images/flickr_dog_000083.jpg,images/flickr_dog_000359.jpg,Eddy,001,2021-08-03_16h50.57.512,Dog face experiment_0-249,2021.1.4,Win32,145.0957632
,,,,,,p,1.5272,0,76,76,76,1,76,images/flickr_dog_000084.jpg,images/flickr_dog_000360.jpg,Eddy,001,2021-08-03_16h50.57.512,Dog face experiment_0-249,2021.1.4,Win32,145.0957632
,,,,,,q,2.3124,0,77,77,77,1,77,images/flickr_dog_000085.jpg,images/flickr_dog_000361.jpg,Eddy,001,2021-08-03_16h50.57.512,Dog face experiment_0-249,2021.1.4,Win32,145.0957632
,,,,,,p,0.9631,0,78,78,78,1,78,images/flickr_dog_000086.jpg,images/flickr_dog_000362.jpg,Eddy,001,2021-08-03_16h50.57.512,Dog face experiment_0-249,2021.1.4,Win32,145.0957632
,,,,,,p,1.0763,0,79,79,79,1,79,images/flickr_dog_000087.jpg,images/flickr_dog_000363.jpg,Eddy,001,2021-08-03_16h50.57.512,Dog face experiment_0-249,2021.1.4,Win32,145.0957632
,,,,,,p,1.0359,0,80,80,80,1,80,images/flickr_dog_000088.jpg,images/flickr_dog_000364.jpg,Eddy,001,2021-08-03_16h50.57.512,Dog face experiment_0-249,2021.1.4,Win32,145.0957632
,,,,,,p,1.3248,0,81,81,81,1,81,images/flickr_dog_000089.jpg,images/flickr_dog_000365.jpg,Eddy,001,2021-08-03_16h50.57.512,Dog face experiment_0-249,2021.1.4,Win32,145.0957632
,,,,,,p,1.1187,0,82,82,82,1,82,images/flickr_dog_000090.jpg,images/flickr_dog_000366.jpg,Eddy,001,2021-08-03_16h50.57.512,Dog face experiment_0-249,2021.1.4,Win32,145.0957632
,,,,,,p,1.5047,0,83,83,83,1,83,images/flickr_dog_000091.jpg,images/flickr_dog_000367.jpg,Eddy,001,2021-08-03_16h50.57.512,Dog face experiment_0-249,2021.1.4,Win32,145.0957632
,,,,,,q,1.5371,0,84,84,84,1,84,images/flickr_dog_000092.jpg,images/flickr_dog_000368.jpg,Eddy,001,2021-08-03_16h50.57.512,Dog face experiment_0-249,2021.1.4,Win32,145.0957632
,,,,,,p,2.7431,0,85,85,85,1,85,images/flickr_dog_000093.jpg,images/flickr_dog_000369.jpg,Eddy,001,2021-08-03_16h50.57.512,Dog face experiment_0-249,2021.1.4,Win32,145.0957632
,,,,,,p,2.0046,0,86,86,86,1,86,images/flickr_dog_000095.jpg,images/flickr_dog_000370.jpg,Eddy,001,2021-08-03_16h50.57.512,Dog face experiment_0-249,2021.1.4,Win32,145.0957632
,,,,,,p,1.422,0,87,87,87,1,87,images/flickr_dog_000096.jpg,images/flickr_dog_000371.jpg,Eddy,001,2021-08-03_16h50.57.512,Dog face experiment_0-249,2021.1.4,Win32,145.0957632
,,,,,,p,3.7704,0,88,88,88,1,88,images/flickr_dog_000097.jpg,images/flickr_dog_000372.jpg,Eddy,001,2021-08-03_16h50.57.512,Dog face experiment_0-249,2021.1.4,Win32,145.0957632
,,,,,,p,1.2852,0,89,89,89,1,89,images/flickr_dog_000098.jpg,images/flickr_dog_000374.jpg,Eddy,001,2021-08-03_16h50.57.512,Dog face experiment_0-249,2021.1.4,Win32,145.0957632
,,,,,,p,4.6853,0,90,90,90,1,90,images/flickr_dog_000099.jpg,images/flickr_dog_000375.jpg,Eddy,001,2021-08-03_16h50.57.512,Dog face experiment_0-249,2021.1.4,Win32,145.0957632
,,,,,,p,1.1953,0,91,91,91,1,91,images/flickr_dog_000100.jpg,images/flickr_dog_000376.jpg,Eddy,001,2021-08-03_16h50.57.512,Dog face experiment_0-249,2021.1.4,Win32,145.0957632
,,,,,,q,0.9423,0,92,92,92,1,92,images/flickr_dog_000101.jpg,images/flickr_dog_000377.jpg,Eddy,001,2021-08-03_16h50.57.512,Dog face experiment_0-249,2021.1.4,Win32,145.0957632
,,,,,,q,1.1577,0,93,93,93,1,93,images/flickr_dog_000102.jpg,images/flickr_dog_000378.jpg,Eddy,001,2021-08-03_16h50.57.512,Dog face experiment_0-249,2021.1.4,Win32,145.0957632
,,,,,,p,1.8129,0,94,94,94,1,94,images/flickr_dog_000103.jpg,images/flickr_dog_000379.jpg,Eddy,001,2021-08-03_16h50.57.512,Dog face experiment_0-249,2021.1.4,Win32,145.0957632
,,,,,,p,1.9442,0,95,95,95,1,95,images/flickr_dog_000105.jpg,images/flickr_dog_000381.jpg,Eddy,001,2021-08-03_16h50.57.512,Dog face experiment_0-249,2021.1.4,Win32,145.0957632
,,,,,,p,2.5699,0,96,96,96,1,96,images/flickr_dog_000106.jpg,images/flickr_dog_000383.jpg,Eddy,001,2021-08-03_16h50.57.512,Dog face experiment_0-249,2021.1.4,Win32,145.0957632
,,,,,,q,1.5064,0,97,97,97,1,97,images/flickr_dog_000107.jpg,images/flickr_dog_000384.jpg,Eddy,001,2021-08-03_16h50.57.512,Dog face experiment_0-249,2021.1.4,Win32,145.0957632
,,,,,,p,2.0087,0,98,98,98,1,98,images/flickr_dog_000108.jpg,images/flickr_dog_000385.jpg,Eddy,001,2021-08-03_16h50.57.512,Dog face experiment_0-249,2021.1.4,Win32,145.0957632
,,,,,,p,2.4039,0,99,99,99,1,99,images/flickr_dog_000109.jpg,images/flickr_dog_000386.jpg,Eddy,001,2021-08-03_16h50.57.512,Dog face experiment_0-249,2021.1.4,Win32,145.0957632
,,,,,,p,2.3177,0,100,100,100,1,100,images/flickr_dog_000110.jpg,images/flickr_dog_000387.jpg,Eddy,001,2021-08-03_16h50.57.512,Dog face experiment_0-249,2021.1.4,Win32,145.0957632
,,,,,,p,2.7766,0,101,101,101,1,101,images/flickr_dog_000112.jpg,images/flickr_dog_000388.jpg,Eddy,001,2021-08-03_16h50.57.512,Dog face experiment_0-249,2021.1.4,Win32,145.0957632
,,,,,,p,0.9498,0,102,102,102,1,102,images/flickr_dog_000113.jpg,images/flickr_dog_000389.jpg,Eddy,001,2021-08-03_16h50.57.512,Dog face experiment_0-249,2021.1.4,Win32,145.0957632
,,,,,,p,3.6323,0,103,103,103,1,103,images/flickr_dog_000114.jpg,images/flickr_dog_000390.jpg,Eddy,001,2021-08-03_16h50.57.512,Dog face experiment_0-249,2021.1.4,Win32,145.0957632
,,,,,,q,1.8362,0,104,104,104,1,104,images/flickr_dog_000115.jpg,images/flickr_dog_000391.jpg,Eddy,001,2021-08-03_16h50.57.512,Dog face experiment_0-249,2021.1.4,Win32,145.0957632
,,,,,,p,1.9653,0,105,105,105,1,105,images/flickr_dog_000117.jpg,images/flickr_dog_000392.jpg,Eddy,001,2021-08-03_16h50.57.512,Dog face experiment_0-249,2021.1.4,Win32,145.0957632
,,,,,,p,1.0678,0,106,106,106,1,106,images/flickr_dog_000118.jpg,images/flickr_dog_000393.jpg,Eddy,001,2021-08-03_16h50.57.512,Dog face experiment_0-249,2021.1.4,Win32,145.0957632
,,,,,,p,1.2722,0,107,107,107,1,107,images/flickr_dog_000119.jpg,images/flickr_dog_000394.jpg,Eddy,001,2021-08-03_16h50.57.512,Dog face experiment_0-249,2021.1.4,Win32,145.0957632
,,,,,,p,1.7478,0,108,108,108,1,108,images/flickr_dog_000120.jpg,images/flickr_dog_000395.jpg,Eddy,001,2021-08-03_16h50.57.512,Dog face experiment_0-249,2021.1.4,Win32,145.0957632
,,,,,,p,4.5793,0,109,109,109,1,109,images/flickr_dog_000121.jpg,images/flickr_dog_000396.jpg,Eddy,001,2021-08-03_16h50.57.512,Dog face experiment_0-249,2021.1.4,Win32,145.0957632
,,,,,,p,1.0886,0,110,110,110,1,110,images/flickr_dog_000122.jpg,images/flickr_dog_000397.jpg,Eddy,001,2021-08-03_16h50.57.512,Dog face experiment_0-249,2021.1.4,Win32,145.0957632
,,,,,,p,2.6954,0,111,111,111,1,111,images/flickr_dog_000123.jpg,images/flickr_dog_000398.jpg,Eddy,001,2021-08-03_16h50.57.512,Dog face experiment_0-249,2021.1.4,Win32,145.0957632
,,,,,,p,1.4578,0,112,112,112,1,112,images/flickr_dog_000124.jpg,images/flickr_dog_000399.jpg,Eddy,001,2021-08-03_16h50.57.512,Dog face experiment_0-249,2021.1.4,Win32,145.0957632
,,,,,,q,1.0688,0,113,113,113,1,113,images/flickr_dog_000125.jpg,images/flickr_dog_000400.jpg,Eddy,001,2021-08-03_16h50.57.512,Dog face experiment_0-249,2021.1.4,Win32,145.0957632
,,,,,,p,2.1759,0,114,114,114,1,114,images/flickr_dog_000126.jpg,images/flickr_dog_000401.jpg,Eddy,001,2021-08-03_16h50.57.512,Dog face experiment_0-249,2021.1.4,Win32,145.0957632
,,,,,,p,1.5561,0,115,115,115,1,115,images/flickr_dog_000127.jpg,images/flickr_dog_000402.jpg,Eddy,001,2021-08-03_16h50.57.512,Dog face experiment_0-249,2021.1.4,Win32,145.0957632
,,,,,,p,1.3458,0,116,116,116,1,116,images/flickr_dog_000128.jpg,images/flickr_dog_000403.jpg,Eddy,001,2021-08-03_16h50.57.512,Dog face experiment_0-249,2021.1.4,Win32,145.0957632
,,,,,,p,2.0122,0,117,117,117,1,117,images/flickr_dog_000129.jpg,images/flickr_dog_000404.jpg,Eddy,001,2021-08-03_16h50.57.512,Dog face experiment_0-249,2021.1.4,Win32,145.0957632
,,,,,,q,3.4855,0,118,118,118,1,118,images/flickr_dog_000130.jpg,images/flickr_dog_000405.jpg,Eddy,001,2021-08-03_16h50.57.512,Dog face experiment_0-249,2021.1.4,Win32,145.0957632
,,,,,,p,0.8598,0,119,119,119,1,119,images/flickr_dog_000131.jpg,images/flickr_dog_000406.jpg,Eddy,001,2021-08-03_16h50.57.512,Dog face experiment_0-249,2021.1.4,Win32,145.0957632
,,,,,,p,1.1498,0,120,120,120,1,120,images/flickr_dog_000132.jpg,images/flickr_dog_000407.jpg,Eddy,001,2021-08-03_16h50.57.512,Dog face experiment_0-249,2021.1.4,Win32,145.0957632
,,,,,,p,3.7604,0,121,121,121,1,121,images/flickr_dog_000133.jpg,images/flickr_dog_000408.jpg,Eddy,001,2021-08-03_16h50.57.512,Dog face experiment_0-249,2021.1.4,Win32,145.0957632
,,,,,,q,1.1259,0,122,122,122,1,122,images/flickr_dog_000134.jpg,images/flickr_dog_000409.jpg,Eddy,001,2021-08-03_16h50.57.512,Dog face experiment_0-249,2021.1.4,Win32,145.0957632
,,,,,,p,1.0589,0,123,123,123,1,123,images/flickr_dog_000135.jpg,images/flickr_dog_000410.jpg,Eddy,001,2021-08-03_16h50.57.512,Dog face experiment_0-249,2021.1.4,Win32,145.0957632
,,,,,,p,2.1294,0,124,124,124,1,124,images/flickr_dog_000136.jpg,images/flickr_dog_000411.jpg,Eddy,001,2021-08-03_16h50.57.512,Dog face experiment_0-249,2021.1.4,Win32,145.0957632
,,,,,,p,1.8847,0,125,125,125,1,125,images/flickr_dog_000137.jpg,images/flickr_dog_000412.jpg,Eddy,001,2021-08-03_16h50.57.512,Dog face experiment_0-249,2021.1.4,Win32,145.0957632
,,,,,,p,1.9256,0,126,126,126,1,126,images/flickr_dog_000138.jpg,images/flickr_dog_000413.jpg,Eddy,001,2021-08-03_16h50.57.512,Dog face experiment_0-249,2021.1.4,Win32,145.0957632
,,,,,,p,1.9428,0,127,127,127,1,127,images/flickr_dog_000139.jpg,images/flickr_dog_000414.jpg,Eddy,001,2021-08-03_16h50.57.512,Dog face experiment_0-249,2021.1.4,Win32,145.0957632
,,,,,,q,2.8303,0,128,128,128,1,128,images/flickr_dog_000140.jpg,images/flickr_dog_000415.jpg,Eddy,001,2021-08-03_16h50.57.512,Dog face experiment_0-249,2021.1.4,Win32,145.0957632
,,,,,,q,2.321,0,129,129,129,1,129,images/flickr_dog_000142.jpg,images/flickr_dog_000416.jpg,Eddy,001,2021-08-03_16h50.57.512,Dog face experiment_0-249,2021.1.4,Win32,145.0957632
,,,,,,q,2.6438,0,130,130,130,1,130,images/flickr_dog_000143.jpg,images/flickr_dog_000417.jpg,Eddy,001,2021-08-03_16h50.57.512,Dog face experiment_0-249,2021.1.4,Win32,145.0957632
,,,,,,p,5.6242,0,131,131,131,1,131,images/flickr_dog_000144.jpg,images/flickr_dog_000418.jpg,Eddy,001,2021-08-03_16h50.57.512,Dog face experiment_0-249,2021.1.4,Win32,145.0957632
,,,,,,p,1.7741,0,132,132,132,1,132,images/flickr_dog_000145.jpg,images/flickr_dog_000419.jpg,Eddy,001,2021-08-03_16h50.57.512,Dog face experiment_0-249,2021.1.4,Win32,145.0957632
,,,,,,q,1.1046,0,133,133,133,1,133,images/flickr_dog_000146.jpg,images/flickr_dog_000420.jpg,Eddy,001,2021-08-03_16h50.57.512,Dog face experiment_0-249,2021.1.4,Win32,145.0957632
,,,,,,q,2.179,0,134,134,134,1,134,images/flickr_dog_000147.jpg,images/flickr_dog_000421.jpg,Eddy,001,2021-08-03_16h50.57.512,Dog face experiment_0-249,2021.1.4,Win32,145.0957632
,,,,,,q,1.0745,0,135,135,135,1,135,images/flickr_dog_000148.jpg,images/flickr_dog_000422.jpg,Eddy,001,2021-08-03_16h50.57.512,Dog face experiment_0-249,2021.1.4,Win32,145.0957632
,,,,,,p,1.8058,0,136,136,136,1,136,images/flickr_dog_000149.jpg,images/flickr_dog_000423.jpg,Eddy,001,2021-08-03_16h50.57.512,Dog face experiment_0-249,2021.1.4,Win32,145.0957632
,,,,,,p,5.171,0,137,137,137,1,137,images/flickr_dog_000150.jpg,images/flickr_dog_000424.jpg,Eddy,001,2021-08-03_16h50.57.512,Dog face experiment_0-249,2021.1.4,Win32,145.0957632
,,,,,,p,1.5831,0,138,138,138,1,138,images/flickr_dog_000151.jpg,images/flickr_dog_000426.jpg,Eddy,001,2021-08-03_16h50.57.512,Dog face experiment_0-249,2021.1.4,Win32,145.0957632
,,,,,,p,1.4366,0,139,139,139,1,139,images/flickr_dog_000152.jpg,images/flickr_dog_000427.jpg,Eddy,001,2021-08-03_16h50.57.512,Dog face experiment_0-249,2021.1.4,Win32,145.0957632
,,,,,,p,4.248,0,140,140,140,1,140,images/flickr_dog_000153.jpg,images/flickr_dog_000428.jpg,Eddy,001,2021-08-03_16h50.57.512,Dog face experiment_0-249,2021.1.4,Win32,145.0957632
,,,,,,q,1.6715,0,141,141,141,1,141,images/flickr_dog_000154.jpg,images/flickr_dog_000429.jpg,Eddy,001,2021-08-03_16h50.57.512,Dog face experiment_0-249,2021.1.4,Win32,145.0957632
,,,,,,p,1.1591,0,142,142,142,1,142,images/flickr_dog_000155.jpg,images/flickr_dog_000430.jpg,Eddy,001,2021-08-03_16h50.57.512,Dog face experiment_0-249,2021.1.4,Win32,145.0957632
,,,,,,q,1.2552,0,143,143,143,1,143,images/flickr_dog_000156.jpg,images/flickr_dog_000431.jpg,Eddy,001,2021-08-03_16h50.57.512,Dog face experiment_0-249,2021.1.4,Win32,145.0957632
,,,,,,p,0.8922,0,144,144,144,1,144,images/flickr_dog_000158.jpg,images/flickr_dog_000432.jpg,Eddy,001,2021-08-03_16h50.57.512,Dog face experiment_0-249,2021.1.4,Win32,145.0957632
,,,,,,q,1.3391,0,145,145,145,1,145,images/flickr_dog_000159.jpg,images/flickr_dog_000433.jpg,Eddy,001,2021-08-03_16h50.57.512,Dog face experiment_0-249,2021.1.4,Win32,145.0957632
,,,,,,q,3.5739,0,146,146,146,1,146,images/flickr_dog_000161.jpg,images/flickr_dog_000434.jpg,Eddy,001,2021-08-03_16h50.57.512,Dog face experiment_0-249,2021.1.4,Win32,145.0957632
,,,,,,q,2.8462,0,147,147,147,1,147,images/flickr_dog_000162.jpg,images/flickr_dog_000435.jpg,Eddy,001,2021-08-03_16h50.57.512,Dog face experiment_0-249,2021.1.4,Win32,145.0957632
,,,,,,q,3.0213,0,148,148,148,1,148,images/flickr_dog_000163.jpg,images/flickr_dog_000436.jpg,Eddy,001,2021-08-03_16h50.57.512,Dog face experiment_0-249,2021.1.4,Win32,145.0957632
,,,,,,q,2.5555,0,149,149,149,1,149,images/flickr_dog_000164.jpg,images/flickr_dog_000437.jpg,Eddy,001,2021-08-03_16h50.57.512,Dog face experiment_0-249,2021.1.4,Win32,145.0957632
,,,,,,q,3.1373,0,150,150,150,1,150,images/flickr_dog_000165.jpg,images/flickr_dog_000438.jpg,Eddy,001,2021-08-03_16h50.57.512,Dog face experiment_0-249,2021.1.4,Win32,145.0957632
,,,,,,p,1.3596,0,151,151,151,1,151,images/flickr_dog_000166.jpg,images/flickr_dog_000439.jpg,Eddy,001,2021-08-03_16h50.57.512,Dog face experiment_0-249,2021.1.4,Win32,145.0957632
,,,,,,q,1.3132,0,152,152,152,1,152,images/flickr_dog_000167.jpg,images/flickr_dog_000440.jpg,Eddy,001,2021-08-03_16h50.57.512,Dog face experiment_0-249,2021.1.4,Win32,145.0957632
,,,,,,p,2.6029,0,153,153,153,1,153,images/flickr_dog_000168.jpg,images/flickr_dog_000441.jpg,Eddy,001,2021-08-03_16h50.57.512,Dog face experiment_0-249,2021.1.4,Win32,145.0957632
,,,,,,p,1.7455,0,154,154,154,1,154,images/flickr_dog_000169.jpg,images/flickr_dog_000442.jpg,Eddy,001,2021-08-03_16h50.57.512,Dog face experiment_0-249,2021.1.4,Win32,145.0957632
,,,,,,q,1.1158,0,155,155,155,1,155,images/flickr_dog_000170.jpg,images/flickr_dog_000443.jpg,Eddy,001,2021-08-03_16h50.57.512,Dog face experiment_0-249,2021.1.4,Win32,145.0957632
,,,,,,q,1.9292,0,156,156,156,1,156,images/flickr_dog_000171.jpg,images/flickr_dog_000444.jpg,Eddy,001,2021-08-03_16h50.57.512,Dog face experiment_0-249,2021.1.4,Win32,145.0957632
,,,,,,p,3.0396,0,157,157,157,1,157,images/flickr_dog_000172.jpg,images/flickr_dog_000445.jpg,Eddy,001,2021-08-03_16h50.57.512,Dog face experiment_0-249,2021.1.4,Win32,145.0957632
,,,,,,q,1.9618,0,158,158,158,1,158,images/flickr_dog_000173.jpg,images/flickr_dog_000446.jpg,Eddy,001,2021-08-03_16h50.57.512,Dog face experiment_0-249,2021.1.4,Win32,145.0957632
,,,,,,q,2.084,0,159,159,159,1,159,images/flickr_dog_000175.jpg,images/flickr_dog_000447.jpg,Eddy,001,2021-08-03_16h50.57.512,Dog face experiment_0-249,2021.1.4,Win32,145.0957632
,,,,,,q,1.1231,0,160,160,160,1,160,images/flickr_dog_000177.jpg,images/flickr_dog_000448.jpg,Eddy,001,2021-08-03_16h50.57.512,Dog face experiment_0-249,2021.1.4,Win32,145.0957632
,,,,,,p,3.118,0,161,161,161,1,161,images/flickr_dog_000178.jpg,images/flickr_dog_000449.jpg,Eddy,001,2021-08-03_16h50.57.512,Dog face experiment_0-249,2021.1.4,Win32,145.0957632
,,,,,,q,1.1946,0,162,162,162,1,162,images/flickr_dog_000179.jpg,images/flickr_dog_000450.jpg,Eddy,001,2021-08-03_16h50.57.512,Dog face experiment_0-249,2021.1.4,Win32,145.0957632
,,,,,,p,1.8035,0,163,163,163,1,163,images/flickr_dog_000180.jpg,images/flickr_dog_000451.jpg,Eddy,001,2021-08-03_16h50.57.512,Dog face experiment_0-249,2021.1.4,Win32,145.0957632
,,,,,,p,1.7553,0,164,164,164,1,164,images/flickr_dog_000181.jpg,images/flickr_dog_000453.jpg,Eddy,001,2021-08-03_16h50.57.512,Dog face experiment_0-249,2021.1.4,Win32,145.0957632
,,,,,,p,1.5893,0,165,165,165,1,165,images/flickr_dog_000182.jpg,images/flickr_dog_000455.jpg,Eddy,001,2021-08-03_16h50.57.512,Dog face experiment_0-249,2021.1.4,Win32,145.0957632
,,,,,,q,3.3113,0,166,166,166,1,166,images/flickr_dog_000183.jpg,images/flickr_dog_000456.jpg,Eddy,001,2021-08-03_16h50.57.512,Dog face experiment_0-249,2021.1.4,Win32,145.0957632
,,,,,,q,4.4979,0,167,167,167,1,167,images/flickr_dog_000184.jpg,images/flickr_dog_000457.jpg,Eddy,001,2021-08-03_16h50.57.512,Dog face experiment_0-249,2021.1.4,Win32,145.0957632
,,,,,,q,1.1852,0,168,168,168,1,168,images/flickr_dog_000185.jpg,images/flickr_dog_000458.jpg,Eddy,001,2021-08-03_16h50.57.512,Dog face experiment_0-249,2021.1.4,Win32,145.0957632
,,,,,,q,1.1561,0,169,169,169,1,169,images/flickr_dog_000186.jpg,images/flickr_dog_000459.jpg,Eddy,001,2021-08-03_16h50.57.512,Dog face experiment_0-249,2021.1.4,Win32,145.0957632
,,,,,,q,1.5558,0,170,170,170,1,170,images/flickr_dog_000187.jpg,images/flickr_dog_000460.jpg,Eddy,001,2021-08-03_16h50.57.512,Dog face experiment_0-249,2021.1.4,Win32,145.0957632
,,,,,,q,2.9673,0,171,171,171,1,171,images/flickr_dog_000188.jpg,images/flickr_dog_000461.jpg,Eddy,001,2021-08-03_16h50.57.512,Dog face experiment_0-249,2021.1.4,Win32,145.0957632
,,,,,,q,1.7061,0,172,172,172,1,172,images/flickr_dog_000189.jpg,images/flickr_dog_000462.jpg,Eddy,001,2021-08-03_16h50.57.512,Dog face experiment_0-249,2021.1.4,Win32,145.0957632
,,,,,,q,1.0482,0,173,173,173,1,173,images/flickr_dog_000190.jpg,images/flickr_dog_000463.jpg,Eddy,001,2021-08-03_16h50.57.512,Dog face experiment_0-249,2021.1.4,Win32,145.0957632
,,,,,,p,4.2287,0,174,174,174,1,174,images/flickr_dog_000191.jpg,images/flickr_dog_000464.jpg,Eddy,001,2021-08-03_16h50.57.512,Dog face experiment_0-249,2021.1.4,Win32,145.0957632
,,,,,,p,1.1364,0,175,175,175,1,175,images/flickr_dog_000192.jpg,images/flickr_dog_000465.jpg,Eddy,001,2021-08-03_16h50.57.512,Dog face experiment_0-249,2021.1.4,Win32,145.0957632
,,,,,,p,3.6437,0,176,176,176,1,176,images/flickr_dog_000194.jpg,images/flickr_dog_000466.jpg,Eddy,001,2021-08-03_16h50.57.512,Dog face experiment_0-249,2021.1.4,Win32,145.0957632
,,,,,,q,2.9633,0,177,177,177,1,177,images/flickr_dog_000195.jpg,images/flickr_dog_000469.jpg,Eddy,001,2021-08-03_16h50.57.512,Dog face experiment_0-249,2021.1.4,Win32,145.0957632
,,,,,,q,1.3581,0,178,178,178,1,178,images/flickr_dog_000196.jpg,images/flickr_dog_000470.jpg,Eddy,001,2021-08-03_16h50.57.512,Dog face experiment_0-249,2021.1.4,Win32,145.0957632
,,,,,,q,3.2558,0,179,179,179,1,179,images/flickr_dog_000197.jpg,images/flickr_dog_000471.jpg,Eddy,001,2021-08-03_16h50.57.512,Dog face experiment_0-249,2021.1.4,Win32,145.0957632
,,,,,,q,4.3076,0,180,180,180,1,180,images/flickr_dog_000199.jpg,images/flickr_dog_000472.jpg,Eddy,001,2021-08-03_16h50.57.512,Dog face experiment_0-249,2021.1.4,Win32,145.0957632
,,,,,,q,1.4634,0,181,181,181,1,181,images/flickr_dog_000200.jpg,images/flickr_dog_000473.jpg,Eddy,001,2021-08-03_16h50.57.512,Dog face experiment_0-249,2021.1.4,Win32,145.0957632
,,,,,,p,6.3252,0,182,182,182,1,182,images/flickr_dog_000201.jpg,images/flickr_dog_000474.jpg,Eddy,001,2021-08-03_16h50.57.512,Dog face experiment_0-249,2021.1.4,Win32,145.0957632
,,,,,,q,1.3088,0,183,183,183,1,183,images/flickr_dog_000202.jpg,images/flickr_dog_000475.jpg,Eddy,001,2021-08-03_16h50.57.512,Dog face experiment_0-249,2021.1.4,Win32,145.0957632
,,,,,,q,1.9764,0,184,184,184,1,184,images/flickr_dog_000203.jpg,images/flickr_dog_000476.jpg,Eddy,001,2021-08-03_16h50.57.512,Dog face experiment_0-249,2021.1.4,Win32,145.0957632
,,,,,,p,2.546,0,185,185,185,1,185,images/flickr_dog_000204.jpg,images/flickr_dog_000477.jpg,Eddy,001,2021-08-03_16h50.57.512,Dog face experiment_0-249,2021.1.4,Win32,145.0957632
,,,,,,p,5.9232,0,186,186,186,1,186,images/flickr_dog_000206.jpg,images/flickr_dog_000478.jpg,Eddy,001,2021-08-03_16h50.57.512,Dog face experiment_0-249,2021.1.4,Win32,145.0957632
,,,,,,q,1.1165,0,187,187,187,1,187,images/flickr_dog_000207.jpg,images/flickr_dog_000479.jpg,Eddy,001,2021-08-03_16h50.57.512,Dog face experiment_0-249,2021.1.4,Win32,145.0957632
,,,,,,q,1.4849,0,188,188,188,1,188,images/flickr_dog_000208.jpg,images/flickr_dog_000480.jpg,Eddy,001,2021-08-03_16h50.57.512,Dog face experiment_0-249,2021.1.4,Win32,145.0957632
,,,,,,p,2.2034,0,189,189,189,1,189,images/flickr_dog_000209.jpg,images/flickr_dog_000481.jpg,Eddy,001,2021-08-03_16h50.57.512,Dog face experiment_0-249,2021.1.4,Win32,145.0957632
,,,,,,q,3.5953,0,190,190,190,1,190,images/flickr_dog_000210.jpg,images/flickr_dog_000482.jpg,Eddy,001,2021-08-03_16h50.57.512,Dog face experiment_0-249,2021.1.4,Win32,145.0957632
,,,,,,p,6.2063,0,191,191,191,1,191,images/flickr_dog_000211.jpg,images/flickr_dog_000483.jpg,Eddy,001,2021-08-03_16h50.57.512,Dog face experiment_0-249,2021.1.4,Win32,145.0957632
,,,,,,q,1.5507,0,192,192,192,1,192,images/flickr_dog_000213.jpg,images/flickr_dog_000484.jpg,Eddy,001,2021-08-03_16h50.57.512,Dog face experiment_0-249,2021.1.4,Win32,145.0957632
,,,,,,p,1.0014,0,193,193,193,1,193,images/flickr_dog_000214.jpg,images/flickr_dog_000485.jpg,Eddy,001,2021-08-03_16h50.57.512,Dog face experiment_0-249,2021.1.4,Win32,145.0957632
,,,,,,p,1.2072,0,194,194,194,1,194,images/flickr_dog_000215.jpg,images/flickr_dog_000486.jpg,Eddy,001,2021-08-03_16h50.57.512,Dog face experiment_0-249,2021.1.4,Win32,145.0957632
,,,,,,q,2.2234,0,195,195,195,1,195,images/flickr_dog_000218.jpg,images/flickr_dog_000487.jpg,Eddy,001,2021-08-03_16h50.57.512,Dog face experiment_0-249,2021.1.4,Win32,145.0957632
,,,,,,p,1.4656,0,196,196,196,1,196,images/flickr_dog_000219.jpg,images/flickr_dog_000488.jpg,Eddy,001,2021-08-03_16h50.57.512,Dog face experiment_0-249,2021.1.4,Win32,145.0957632
,,,,,,p,5.8492,0,197,197,197,1,197,images/flickr_dog_000220.jpg,images/flickr_dog_000490.jpg,Eddy,001,2021-08-03_16h50.57.512,Dog face experiment_0-249,2021.1.4,Win32,145.0957632
,,,,,,q,4.4506,0,198,198,198,1,198,images/flickr_dog_000221.jpg,images/flickr_dog_000492.jpg,Eddy,001,2021-08-03_16h50.57.512,Dog face experiment_0-249,2021.1.4,Win32,145.0957632
,,,,,,q,5.3223,0,199,199,199,1,199,images/flickr_dog_000222.jpg,images/flickr_dog_000493.jpg,Eddy,001,2021-08-03_16h50.57.512,Dog face experiment_0-249,2021.1.4,Win32,145.0957632
,,,,,,p,0.9279,0,200,200,200,1,200,images/flickr_dog_000223.jpg,images/flickr_dog_000494.jpg,Eddy,001,2021-08-03_16h50.57.512,Dog face experiment_0-249,2021.1.4,Win32,145.0957632
,,,,,,p,1.1473,0,201,201,201,1,201,images/flickr_dog_000225.jpg,images/flickr_dog_000496.jpg,Eddy,001,2021-08-03_16h50.57.512,Dog face experiment_0-249,2021.1.4,Win32,145.0957632
,,,,,,p,1.2208,0,202,202,202,1,202,images/flickr_dog_000226.jpg,images/flickr_dog_000497.jpg,Eddy,001,2021-08-03_16h50.57.512,Dog face experiment_0-249,2021.1.4,Win32,145.0957632
,,,,,,p,1.9216,0,203,203,203,1,203,images/flickr_dog_000227.jpg,images/flickr_dog_000498.jpg,Eddy,001,2021-08-03_16h50.57.512,Dog face experiment_0-249,2021.1.4,Win32,145.0957632
,,,,,,q,1.2756,0,204,204,204,1,204,images/flickr_dog_000228.jpg,images/flickr_dog_000499.jpg,Eddy,001,2021-08-03_16h50.57.512,Dog face experiment_0-249,2021.1.4,Win32,145.0957632
,,,,,,q,1.5505,0,205,205,205,1,205,images/flickr_dog_000229.jpg,images/flickr_dog_000500.jpg,Eddy,001,2021-08-03_16h50.57.512,Dog face experiment_0-249,2021.1.4,Win32,145.0957632
,,,,,,q,1.3069,0,206,206,206,1,206,images/flickr_dog_000230.jpg,images/flickr_dog_000501.jpg,Eddy,001,2021-08-03_16h50.57.512,Dog face experiment_0-249,2021.1.4,Win32,145.0957632
,,,,,,q,1.1376,0,207,207,207,1,207,images/flickr_dog_000231.jpg,images/flickr_dog_000502.jpg,Eddy,001,2021-08-03_16h50.57.512,Dog face experiment_0-249,2021.1.4,Win32,145.0957632
,,,,,,q,3.3184,0,208,208,208,1,208,images/flickr_dog_000232.jpg,images/flickr_dog_000503.jpg,Eddy,001,2021-08-03_16h50.57.512,Dog face experiment_0-249,2021.1.4,Win32,145.0957632
,,,,,,q,2.7363,0,209,209,209,1,209,images/flickr_dog_000233.jpg,images/flickr_dog_000504.jpg,Eddy,001,2021-08-03_16h50.57.512,Dog face experiment_0-249,2021.1.4,Win32,145.0957632
,,,,,,q,7.3831,0,210,210,210,1,210,images/flickr_dog_000234.jpg,images/flickr_dog_000505.jpg,Eddy,001,2021-08-03_16h50.57.512,Dog face experiment_0-249,2021.1.4,Win32,145.0957632
,,,,,,p,3.4814,0,211,211,211,1,211,images/flickr_dog_000235.jpg,images/flickr_dog_000506.jpg,Eddy,001,2021-08-03_16h50.57.512,Dog face experiment_0-249,2021.1.4,Win32,145.0957632
,,,,,,q,5.5597,0,212,212,212,1,212,images/flickr_dog_000236.jpg,images/flickr_dog_000507.jpg,Eddy,001,2021-08-03_16h50.57.512,Dog face experiment_0-249,2021.1.4,Win32,145.0957632
,,,,,,p,1.8463,0,213,213,213,1,213,images/flickr_dog_000237.jpg,images/flickr_dog_000508.jpg,Eddy,001,2021-08-03_16h50.57.512,Dog face experiment_0-249,2021.1.4,Win32,145.0957632
,,,,,,q,4.5268,0,214,214,214,1,214,images/flickr_dog_000238.jpg,images/flickr_dog_000509.jpg,Eddy,001,2021-08-03_16h50.57.512,Dog face experiment_0-249,2021.1.4,Win32,145.0957632
,,,,,,p,2.0072,0,215,215,215,1,215,images/flickr_dog_000239.jpg,images/flickr_dog_000510.jpg,Eddy,001,2021-08-03_16h50.57.512,Dog face experiment_0-249,2021.1.4,Win32,145.0957632
,,,,,,q,1.7629,0,216,216,216,1,216,images/flickr_dog_000240.jpg,images/flickr_dog_000511.jpg,Eddy,001,2021-08-03_16h50.57.512,Dog face experiment_0-249,2021.1.4,Win32,145.0957632
,,,,,,q,1.2221,0,217,217,217,1,217,images/flickr_dog_000241.jpg,images/flickr_dog_000512.jpg,Eddy,001,2021-08-03_16h50.57.512,Dog face experiment_0-249,2021.1.4,Win32,145.0957632
,,,,,,q,1.2148,0,218,218,218,1,218,images/flickr_dog_000242.jpg,images/flickr_dog_000513.jpg,Eddy,001,2021-08-03_16h50.57.512,Dog face experiment_0-249,2021.1.4,Win32,145.0957632
,,,,,,p,1.8605,0,219,219,219,1,219,images/flickr_dog_000243.jpg,images/flickr_dog_000514.jpg,Eddy,001,2021-08-03_16h50.57.512,Dog face experiment_0-249,2021.1.4,Win32,145.0957632
,,,,,,p,0.9911,0,220,220,220,1,220,images/flickr_dog_000244.jpg,images/flickr_dog_000515.jpg,Eddy,001,2021-08-03_16h50.57.512,Dog face experiment_0-249,2021.1.4,Win32,145.0957632
,,,,,,q,1.1676,0,221,221,221,1,221,images/flickr_dog_000247.jpg,images/flickr_dog_000516.jpg,Eddy,001,2021-08-03_16h50.57.512,Dog face experiment_0-249,2021.1.4,Win32,145.0957632
,,,,,,p,1.0119,0,222,222,222,1,222,images/flickr_dog_000248.jpg,images/flickr_dog_000517.jpg,Eddy,001,2021-08-03_16h50.57.512,Dog face experiment_0-249,2021.1.4,Win32,145.0957632
,,,,,,p,1.3109,0,223,223,223,1,223,images/flickr_dog_000249.jpg,images/flickr_dog_000518.jpg,Eddy,001,2021-08-03_16h50.57.512,Dog face experiment_0-249,2021.1.4,Win32,145.0957632
,,,,,,p,1.151,0,224,224,224,1,224,images/flickr_dog_000250.jpg,images/flickr_dog_000519.jpg,Eddy,001,2021-08-03_16h50.57.512,Dog face experiment_0-249,2021.1.4,Win32,145.0957632
,,,,,,p,0.8877,0,225,225,225,1,225,images/flickr_dog_000251.jpg,images/flickr_dog_000520.jpg,Eddy,001,2021-08-03_16h50.57.512,Dog face experiment_0-249,2021.1.4,Win32,145.0957632
,,,,,,q,2.2913,0,226,226,226,1,226,images/flickr_dog_000253.jpg,images/flickr_dog_000522.jpg,Eddy,001,2021-08-03_16h50.57.512,Dog face experiment_0-249,2021.1.4,Win32,145.0957632
,,,,,,p,1.0757,0,227,227,227,1,227,images/flickr_dog_000255.jpg,images/flickr_dog_000523.jpg,Eddy,001,2021-08-03_16h50.57.512,Dog face experiment_0-249,2021.1.4,Win32,145.0957632
,,,,,,p,2.2629,0,228,228,228,1,228,images/flickr_dog_000256.jpg,images/flickr_dog_000524.jpg,Eddy,001,2021-08-03_16h50.57.512,Dog face experiment_0-249,2021.1.4,Win32,145.0957632
,,,,,,p,4.9857,0,229,229,229,1,229,images/flickr_dog_000257.jpg,images/flickr_dog_000525.jpg,Eddy,001,2021-08-03_16h50.57.512,Dog face experiment_0-249,2021.1.4,Win32,145.0957632
,,,,,,p,3.5126,0,230,230,230,1,230,images/flickr_dog_000259.jpg,images/flickr_dog_000526.jpg,Eddy,001,2021-08-03_16h50.57.512,Dog face experiment_0-249,2021.1.4,Win32,145.0957632
,,,,,,q,2.3872,0,231,231,231,1,231,images/flickr_dog_000260.jpg,images/flickr_dog_000527.jpg,Eddy,001,2021-08-03_16h50.57.512,Dog face experiment_0-249,2021.1.4,Win32,145.0957632
,,,,,,q,6.2918,0,232,232,232,1,232,images/flickr_dog_000261.jpg,images/flickr_dog_000528.jpg,Eddy,001,2021-08-03_16h50.57.512,Dog face experiment_0-249,2021.1.4,Win32,145.0957632
,,,,,,q,1.7494,0,233,233,233,1,233,images/flickr_dog_000262.jpg,images/flickr_dog_000529.jpg,Eddy,001,2021-08-03_16h50.57.512,Dog face experiment_0-249,2021.1.4,Win32,145.0957632
,,,,,,p,1.3187,0,234,234,234,1,234,images/flickr_dog_000263.jpg,images/flickr_dog_000530.jpg,Eddy,001,2021-08-03_16h50.57.512,Dog face experiment_0-249,2021.1.4,Win32,145.0957632
,,,,,,p,1.9885,0,235,235,235,1,235,images/flickr_dog_000264.jpg,images/flickr_dog_000531.jpg,Eddy,001,2021-08-03_16h50.57.512,Dog face experiment_0-249,2021.1.4,Win32,145.0957632
,,,,,,q,1.3661,0,236,236,236,1,236,images/flickr_dog_000265.jpg,images/flickr_dog_000532.jpg,Eddy,001,2021-08-03_16h50.57.512,Dog face experiment_0-249,2021.1.4,Win32,145.0957632
,,,,,,q,0.9841,0,237,237,237,1,237,images/flickr_dog_000266.jpg,images/flickr_dog_000533.jpg,Eddy,001,2021-08-03_16h50.57.512,Dog face experiment_0-249,2021.1.4,Win32,145.0957632
,,,,,,q,1.7564,0,238,238,238,1,238,images/flickr_dog_000267.jpg,images/flickr_dog_000534.jpg,Eddy,001,2021-08-03_16h50.57.512,Dog face experiment_0-249,2021.1.4,Win32,145.0957632
,,,,,,q,1.3067,0,239,239,239,1,239,images/flickr_dog_000268.jpg,images/flickr_dog_000535.jpg,Eddy,001,2021-08-03_16h50.57.512,Dog face experiment_0-249,2021.1.4,Win32,145.0957632
,,,,,,q,15.0905,0,240,240,240,1,240,images/flickr_dog_000269.jpg,images/flickr_dog_000536.jpg,Eddy,001,2021-08-03_16h50.57.512,Dog face experiment_0-249,2021.1.4,Win32,145.0957632
,,,,,,q,2.3325,0,241,241,241,1,241,images/flickr_dog_000270.jpg,images/flickr_dog_000537.jpg,Eddy,001,2021-08-03_16h50.57.512,Dog face experiment_0-249,2021.1.4,Win32,145.0957632
,,,,,,q,1.6908,0,242,242,242,1,242,images/flickr_dog_000271.jpg,images/flickr_dog_000539.jpg,Eddy,001,2021-08-03_16h50.57.512,Dog face experiment_0-249,2021.1.4,Win32,145.0957632
,,,,,,p,4.1865,0,243,243,243,1,243,images/flickr_dog_000272.jpg,images/flickr_dog_000540.jpg,Eddy,001,2021-08-03_16h50.57.512,Dog face experiment_0-249,2021.1.4,Win32,145.0957632
,,,,,,q,0.9708,0,244,244,244,1,244,images/flickr_dog_000273.jpg,images/flickr_dog_000541.jpg,Eddy,001,2021-08-03_16h50.57.512,Dog face experiment_0-249,2021.1.4,Win32,145.0957632
,,,,,,p,3.7351,0,245,245,245,1,245,images/flickr_dog_000274.jpg,images/flickr_dog_000542.jpg,Eddy,001,2021-08-03_16h50.57.512,Dog face experiment_0-249,2021.1.4,Win32,145.0957632
,,,,,,q,0.8964,0,246,246,246,1,246,images/flickr_dog_000275.jpg,images/flickr_dog_000543.jpg,Eddy,001,2021-08-03_16h50.57.512,Dog face experiment_0-249,2021.1.4,Win32,145.0957632
,,,,,,q,1.0353,0,247,247,247,1,247,images/flickr_dog_000276.jpg,images/flickr_dog_000544.jpg,Eddy,001,2021-08-03_16h50.57.512,Dog face experiment_0-249,2021.1.4,Win32,145.0957632
,,,,,,q,1.1235,0,248,248,248,1,248,images/flickr_dog_000277.jpg,images/flickr_dog_000546.jpg,Eddy,001,2021-08-03_16h50.57.512,Dog face experiment_0-249,2021.1.4,Win32,145.0957632
,,,,,,q,2.5048,0,249,249,249,1,249,images/flickr_dog_000278.jpg,images/flickr_dog_000547.jpg,Eddy,001,2021-08-03_16h50.57.512,Dog face experiment_0-249,2021.1.4,Win32,145.0957632
