key_resp.keys,key_resp.rt,key_resp_2.keys,key_resp_2.rt,key_resp_3.keys,key_resp_3.rt,key_resp_4.keys,key_resp_4.rt,trials.thisRepN,trials.thisTrialN,trials.thisN,trials.thisIndex,trials.ran,trail_nums,img1,img2,participant,session,date,expName,psychopyVersion,OS,frameRate
space,1.7205,space,0.9136,space,0.7813,p,1.8677,0,0,0,0,1,0,images/flickr_dog_001117.jpg,images/pixabay_dog_000208.jpg,Yun-Jen Tsai,001,2021-08-03_20h27.49.788,Dog face experiment_500-749,2021.1.4,Win32,60.17209218
,,,,,,q,0.8411,0,1,1,1,1,1,images/flickr_dog_001118.jpg,images/pixabay_dog_000209.jpg,Yun-Jen Tsai,001,2021-08-03_20h27.49.788,Dog face experiment_500-749,2021.1.4,Win32,60.17209218
,,,,,,q,1.122,0,2,2,2,1,2,images/flickr_dog_001119.jpg,images/pixabay_dog_000210.jpg,Yun-Jen Tsai,001,2021-08-03_20h27.49.788,Dog face experiment_500-749,2021.1.4,Win32,60.17209218
,,,,,,q,0.8367,0,3,3,3,1,3,images/flickr_dog_001121.jpg,images/pixabay_dog_000211.jpg,Yun-Jen Tsai,001,2021-08-03_20h27.49.788,Dog face experiment_500-749,2021.1.4,Win32,60.17209218
,,,,,,p,1.1718,0,4,4,4,1,4,images/flickr_dog_001123.jpg,images/pixabay_dog_000212.jpg,Yun-Jen Tsai,001,2021-08-03_20h27.49.788,Dog face experiment_500-749,2021.1.4,Win32,60.17209218
,,,,,,q,0.9202,0,5,5,5,1,5,images/flickr_dog_001124.jpg,images/pixabay_dog_000213.jpg,Yun-Jen Tsai,001,2021-08-03_20h27.49.788,Dog face experiment_500-749,2021.1.4,Win32,60.17209218
,,,,,,q,1.0258,0,6,6,6,1,6,images/flickr_dog_001125.jpg,images/pixabay_dog_000214.jpg,Yun-Jen Tsai,001,2021-08-03_20h27.49.788,Dog face experiment_500-749,2021.1.4,Win32,60.17209218
,,,,,,q,0.8208,0,7,7,7,1,7,images/flickr_dog_001126.jpg,images/pixabay_dog_000215.jpg,Yun-Jen Tsai,001,2021-08-03_20h27.49.788,Dog face experiment_500-749,2021.1.4,Win32,60.17209218
,,,,,,q,0.9699,0,8,8,8,1,8,images/flickr_dog_001127.jpg,images/pixabay_dog_000216.jpg,Yun-Jen Tsai,001,2021-08-03_20h27.49.788,Dog face experiment_500-749,2021.1.4,Win32,60.17209218
,,,,,,q,0.821,0,9,9,9,1,9,images/flickr_dog_001128.jpg,images/pixabay_dog_000217.jpg,Yun-Jen Tsai,001,2021-08-03_20h27.49.788,Dog face experiment_500-749,2021.1.4,Win32,60.17209218
,,,,,,p,1.1047,0,10,10,10,1,10,images/flickr_dog_001129.jpg,images/pixabay_dog_000218.jpg,Yun-Jen Tsai,001,2021-08-03_20h27.49.788,Dog face experiment_500-749,2021.1.4,Win32,60.17209218
,,,,,,p,1.6556,0,11,11,11,1,11,images/flickr_dog_001130.jpg,images/pixabay_dog_000219.jpg,Yun-Jen Tsai,001,2021-08-03_20h27.49.788,Dog face experiment_500-749,2021.1.4,Win32,60.17209218
,,,,,,p,0.8235,0,12,12,12,1,12,images/flickr_dog_001131.jpg,images/pixabay_dog_000220.jpg,Yun-Jen Tsai,001,2021-08-03_20h27.49.788,Dog face experiment_500-749,2021.1.4,Win32,60.17209218
,,,,,,q,1.1585,0,13,13,13,1,13,images/flickr_dog_001132.jpg,images/pixabay_dog_000221.jpg,Yun-Jen Tsai,001,2021-08-03_20h27.49.788,Dog face experiment_500-749,2021.1.4,Win32,60.17209218
,,,,,,p,1.2754,0,14,14,14,1,14,images/flickr_dog_001133.jpg,images/pixabay_dog_000222.jpg,Yun-Jen Tsai,001,2021-08-03_20h27.49.788,Dog face experiment_500-749,2021.1.4,Win32,60.17209218
,,,,,,p,1.1389,0,15,15,15,1,15,images/flickr_dog_001134.jpg,images/pixabay_dog_000223.jpg,Yun-Jen Tsai,001,2021-08-03_20h27.49.788,Dog face experiment_500-749,2021.1.4,Win32,60.17209218
,,,,,,p,1.7748,0,16,16,16,1,16,images/flickr_dog_001135.jpg,images/pixabay_dog_000224.jpg,Yun-Jen Tsai,001,2021-08-03_20h27.49.788,Dog face experiment_500-749,2021.1.4,Win32,60.17209218
,,,,,,q,1.4615,0,17,17,17,1,17,images/flickr_dog_001136.jpg,images/pixabay_dog_000225.jpg,Yun-Jen Tsai,001,2021-08-03_20h27.49.788,Dog face experiment_500-749,2021.1.4,Win32,60.17209218
,,,,,,p,1.1207,0,18,18,18,1,18,images/flickr_dog_001137.jpg,images/pixabay_dog_000226.jpg,Yun-Jen Tsai,001,2021-08-03_20h27.49.788,Dog face experiment_500-749,2021.1.4,Win32,60.17209218
,,,,,,p,0.9258,0,19,19,19,1,19,images/flickr_dog_001138.jpg,images/pixabay_dog_000228.jpg,Yun-Jen Tsai,001,2021-08-03_20h27.49.788,Dog face experiment_500-749,2021.1.4,Win32,60.17209218
,,,,,,p,0.7237,0,20,20,20,1,20,images/flickr_dog_001139.jpg,images/pixabay_dog_000229.jpg,Yun-Jen Tsai,001,2021-08-03_20h27.49.788,Dog face experiment_500-749,2021.1.4,Win32,60.17209218
,,,,,,q,1.5405,0,21,21,21,1,21,images/flickr_dog_001140.jpg,images/pixabay_dog_000230.jpg,Yun-Jen Tsai,001,2021-08-03_20h27.49.788,Dog face experiment_500-749,2021.1.4,Win32,60.17209218
,,,,,,p,0.8632,0,22,22,22,1,22,images/flickr_dog_001141.jpg,images/pixabay_dog_000231.jpg,Yun-Jen Tsai,001,2021-08-03_20h27.49.788,Dog face experiment_500-749,2021.1.4,Win32,60.17209218
,,,,,,p,0.838,0,23,23,23,1,23,images/flickr_dog_001142.jpg,images/pixabay_dog_000232.jpg,Yun-Jen Tsai,001,2021-08-03_20h27.49.788,Dog face experiment_500-749,2021.1.4,Win32,60.17209218
,,,,,,q,1.1218,0,24,24,24,1,24,images/flickr_dog_001143.jpg,images/pixabay_dog_000233.jpg,Yun-Jen Tsai,001,2021-08-03_20h27.49.788,Dog face experiment_500-749,2021.1.4,Win32,60.17209218
,,,,,,p,0.7554,0,25,25,25,1,25,images/flickr_dog_001144.jpg,images/pixabay_dog_000234.jpg,Yun-Jen Tsai,001,2021-08-03_20h27.49.788,Dog face experiment_500-749,2021.1.4,Win32,60.17209218
,,,,,,q,1.6882,0,26,26,26,1,26,images/flickr_dog_001145.jpg,images/pixabay_dog_000235.jpg,Yun-Jen Tsai,001,2021-08-03_20h27.49.788,Dog face experiment_500-749,2021.1.4,Win32,60.17209218
,,,,,,q,1.2752,0,27,27,27,1,27,images/flickr_dog_001146.jpg,images/pixabay_dog_000236.jpg,Yun-Jen Tsai,001,2021-08-03_20h27.49.788,Dog face experiment_500-749,2021.1.4,Win32,60.17209218
,,,,,,q,1.0295,0,28,28,28,1,28,images/flickr_dog_001147.jpg,images/pixabay_dog_000237.jpg,Yun-Jen Tsai,001,2021-08-03_20h27.49.788,Dog face experiment_500-749,2021.1.4,Win32,60.17209218
,,,,,,p,1.7207,0,29,29,29,1,29,images/flickr_dog_001148.jpg,images/pixabay_dog_000240.jpg,Yun-Jen Tsai,001,2021-08-03_20h27.49.788,Dog face experiment_500-749,2021.1.4,Win32,60.17209218
,,,,,,p,0.8714,0,30,30,30,1,30,images/flickr_dog_001149.jpg,images/pixabay_dog_000242.jpg,Yun-Jen Tsai,001,2021-08-03_20h27.49.788,Dog face experiment_500-749,2021.1.4,Win32,60.17209218
,,,,,,p,1.0709,0,31,31,31,1,31,images/flickr_dog_001150.jpg,images/pixabay_dog_000243.jpg,Yun-Jen Tsai,001,2021-08-03_20h27.49.788,Dog face experiment_500-749,2021.1.4,Win32,60.17209218
,,,,,,q,1.128,0,32,32,32,1,32,images/flickr_dog_001151.jpg,images/pixabay_dog_000244.jpg,Yun-Jen Tsai,001,2021-08-03_20h27.49.788,Dog face experiment_500-749,2021.1.4,Win32,60.17209218
,,,,,,q,1.1227,0,33,33,33,1,33,images/flickr_dog_001152.jpg,images/pixabay_dog_000245.jpg,Yun-Jen Tsai,001,2021-08-03_20h27.49.788,Dog face experiment_500-749,2021.1.4,Win32,60.17209218
,,,,,,p,1.0042,0,34,34,34,1,34,images/flickr_dog_001153.jpg,images/pixabay_dog_000246.jpg,Yun-Jen Tsai,001,2021-08-03_20h27.49.788,Dog face experiment_500-749,2021.1.4,Win32,60.17209218
,,,,,,p,0.722,0,35,35,35,1,35,images/flickr_dog_001154.jpg,images/pixabay_dog_000247.jpg,Yun-Jen Tsai,001,2021-08-03_20h27.49.788,Dog face experiment_500-749,2021.1.4,Win32,60.17209218
,,,,,,p,0.756,0,36,36,36,1,36,images/flickr_dog_001155.jpg,images/pixabay_dog_000248.jpg,Yun-Jen Tsai,001,2021-08-03_20h27.49.788,Dog face experiment_500-749,2021.1.4,Win32,60.17209218
,,,,,,q,1.5886,0,37,37,37,1,37,images/flickr_dog_001156.jpg,images/pixabay_dog_000249.jpg,Yun-Jen Tsai,001,2021-08-03_20h27.49.788,Dog face experiment_500-749,2021.1.4,Win32,60.17209218
,,,,,,p,0.8402,0,38,38,38,1,38,images/flickr_dog_001157.jpg,images/pixabay_dog_000250.jpg,Yun-Jen Tsai,001,2021-08-03_20h27.49.788,Dog face experiment_500-749,2021.1.4,Win32,60.17209218
,,,,,,p,1.1876,0,39,39,39,1,39,images/flickr_dog_001158.jpg,images/pixabay_dog_000251.jpg,Yun-Jen Tsai,001,2021-08-03_20h27.49.788,Dog face experiment_500-749,2021.1.4,Win32,60.17209218
,,,,,,p,0.8468,0,40,40,40,1,40,images/flickr_dog_001159.jpg,images/pixabay_dog_000252.jpg,Yun-Jen Tsai,001,2021-08-03_20h27.49.788,Dog face experiment_500-749,2021.1.4,Win32,60.17209218
,,,,,,p,1.2875,0,41,41,41,1,41,images/flickr_dog_001160.jpg,images/pixabay_dog_000253.jpg,Yun-Jen Tsai,001,2021-08-03_20h27.49.788,Dog face experiment_500-749,2021.1.4,Win32,60.17209218
,,,,,,p,0.8877,0,42,42,42,1,42,images/flickr_dog_001161.jpg,images/pixabay_dog_000254.jpg,Yun-Jen Tsai,001,2021-08-03_20h27.49.788,Dog face experiment_500-749,2021.1.4,Win32,60.17209218
,,,,,,q,1.4901,0,43,43,43,1,43,images/flickr_dog_001162.jpg,images/pixabay_dog_000255.jpg,Yun-Jen Tsai,001,2021-08-03_20h27.49.788,Dog face experiment_500-749,2021.1.4,Win32,60.17209218
,,,,,,q,0.8417,0,44,44,44,1,44,images/flickr_dog_001163.jpg,images/pixabay_dog_000256.jpg,Yun-Jen Tsai,001,2021-08-03_20h27.49.788,Dog face experiment_500-749,2021.1.4,Win32,60.17209218
,,,,,,p,0.7544,0,45,45,45,1,45,images/flickr_dog_001164.jpg,images/pixabay_dog_000257.jpg,Yun-Jen Tsai,001,2021-08-03_20h27.49.788,Dog face experiment_500-749,2021.1.4,Win32,60.17209218
,,,,,,q,0.8248,0,46,46,46,1,46,images/flickr_dog_001165.jpg,images/pixabay_dog_000258.jpg,Yun-Jen Tsai,001,2021-08-03_20h27.49.788,Dog face experiment_500-749,2021.1.4,Win32,60.17209218
,,,,,,p,1.1053,0,47,47,47,1,47,images/flickr_dog_001166.jpg,images/pixabay_dog_000259.jpg,Yun-Jen Tsai,001,2021-08-03_20h27.49.788,Dog face experiment_500-749,2021.1.4,Win32,60.17209218
,,,,,,q,0.7717,0,48,48,48,1,48,images/flickr_dog_001167.jpg,images/pixabay_dog_000260.jpg,Yun-Jen Tsai,001,2021-08-03_20h27.49.788,Dog face experiment_500-749,2021.1.4,Win32,60.17209218
,,,,,,q,1.2293,0,49,49,49,1,49,images/flickr_dog_001168.jpg,images/pixabay_dog_000261.jpg,Yun-Jen Tsai,001,2021-08-03_20h27.49.788,Dog face experiment_500-749,2021.1.4,Win32,60.17209218
,,,,,,p,1.14,0,50,50,50,1,50,images/flickr_dog_001169.jpg,images/pixabay_dog_000262.jpg,Yun-Jen Tsai,001,2021-08-03_20h27.49.788,Dog face experiment_500-749,2021.1.4,Win32,60.17209218
,,,,,,p,0.7881,0,51,51,51,1,51,images/flickr_dog_001170.jpg,images/pixabay_dog_000263.jpg,Yun-Jen Tsai,001,2021-08-03_20h27.49.788,Dog face experiment_500-749,2021.1.4,Win32,60.17209218
,,,,,,p,0.9585,0,52,52,52,1,52,images/flickr_dog_001171.jpg,images/pixabay_dog_000264.jpg,Yun-Jen Tsai,001,2021-08-03_20h27.49.788,Dog face experiment_500-749,2021.1.4,Win32,60.17209218
,,,,,,q,0.9037,0,53,53,53,1,53,images/flickr_dog_001172.jpg,images/pixabay_dog_000266.jpg,Yun-Jen Tsai,001,2021-08-03_20h27.49.788,Dog face experiment_500-749,2021.1.4,Win32,60.17209218
,,,,,,p,1.7777,0,54,54,54,1,54,images/flickr_dog_001174.jpg,images/pixabay_dog_000267.jpg,Yun-Jen Tsai,001,2021-08-03_20h27.49.788,Dog face experiment_500-749,2021.1.4,Win32,60.17209218
,,,,,,q,1.1061,0,55,55,55,1,55,images/flickr_dog_001175.jpg,images/pixabay_dog_000268.jpg,Yun-Jen Tsai,001,2021-08-03_20h27.49.788,Dog face experiment_500-749,2021.1.4,Win32,60.17209218
,,,,,,q,1.0574,0,56,56,56,1,56,images/flickr_dog_001176.jpg,images/pixabay_dog_000269.jpg,Yun-Jen Tsai,001,2021-08-03_20h27.49.788,Dog face experiment_500-749,2021.1.4,Win32,60.17209218
,,,,,,q,2.3868,0,57,57,57,1,57,images/flickr_dog_001178.jpg,images/pixabay_dog_000270.jpg,Yun-Jen Tsai,001,2021-08-03_20h27.49.788,Dog face experiment_500-749,2021.1.4,Win32,60.17209218
,,,,,,q,0.9911,0,58,58,58,1,58,images/flickr_dog_001179.jpg,images/pixabay_dog_000272.jpg,Yun-Jen Tsai,001,2021-08-03_20h27.49.788,Dog face experiment_500-749,2021.1.4,Win32,60.17209218
,,,,,,q,1.7057,0,59,59,59,1,59,images/flickr_dog_001180.jpg,images/pixabay_dog_000273.jpg,Yun-Jen Tsai,001,2021-08-03_20h27.49.788,Dog face experiment_500-749,2021.1.4,Win32,60.17209218
,,,,,,p,0.9368,0,60,60,60,1,60,images/flickr_dog_001181.jpg,images/pixabay_dog_000274.jpg,Yun-Jen Tsai,001,2021-08-03_20h27.49.788,Dog face experiment_500-749,2021.1.4,Win32,60.17209218
,,,,,,p,0.8118,0,61,61,61,1,61,images/flickr_dog_001182.jpg,images/pixabay_dog_000275.jpg,Yun-Jen Tsai,001,2021-08-03_20h27.49.788,Dog face experiment_500-749,2021.1.4,Win32,60.17209218
,,,,,,q,1.071,0,62,62,62,1,62,images/flickr_dog_001183.jpg,images/pixabay_dog_000276.jpg,Yun-Jen Tsai,001,2021-08-03_20h27.49.788,Dog face experiment_500-749,2021.1.4,Win32,60.17209218
,,,,,,q,1.2048,0,63,63,63,1,63,images/pixabay_dog_000002.jpg,images/pixabay_dog_000279.jpg,Yun-Jen Tsai,001,2021-08-03_20h27.49.788,Dog face experiment_500-749,2021.1.4,Win32,60.17209218
,,,,,,q,2.1113,0,64,64,64,1,64,images/pixabay_dog_000003.jpg,images/pixabay_dog_000280.jpg,Yun-Jen Tsai,001,2021-08-03_20h27.49.788,Dog face experiment_500-749,2021.1.4,Win32,60.17209218
,,,,,,q,1.2202,0,65,65,65,1,65,images/pixabay_dog_000004.jpg,images/pixabay_dog_000281.jpg,Yun-Jen Tsai,001,2021-08-03_20h27.49.788,Dog face experiment_500-749,2021.1.4,Win32,60.17209218
,,,,,,p,1.6052,0,66,66,66,1,66,images/pixabay_dog_000005.jpg,images/pixabay_dog_000282.jpg,Yun-Jen Tsai,001,2021-08-03_20h27.49.788,Dog face experiment_500-749,2021.1.4,Win32,60.17209218
,,,,,,p,1.5913,0,67,67,67,1,67,images/pixabay_dog_000006.jpg,images/pixabay_dog_000283.jpg,Yun-Jen Tsai,001,2021-08-03_20h27.49.788,Dog face experiment_500-749,2021.1.4,Win32,60.17209218
,,,,,,p,0.9378,0,68,68,68,1,68,images/pixabay_dog_000007.jpg,images/pixabay_dog_000284.jpg,Yun-Jen Tsai,001,2021-08-03_20h27.49.788,Dog face experiment_500-749,2021.1.4,Win32,60.17209218
,,,,,,p,1.5713,0,69,69,69,1,69,images/pixabay_dog_000008.jpg,images/pixabay_dog_000285.jpg,Yun-Jen Tsai,001,2021-08-03_20h27.49.788,Dog face experiment_500-749,2021.1.4,Win32,60.17209218
,,,,,,p,1.148,0,70,70,70,1,70,images/pixabay_dog_000010.jpg,images/pixabay_dog_000286.jpg,Yun-Jen Tsai,001,2021-08-03_20h27.49.788,Dog face experiment_500-749,2021.1.4,Win32,60.17209218
,,,,,,p,1.0878,0,71,71,71,1,71,images/pixabay_dog_000011.jpg,images/pixabay_dog_000287.jpg,Yun-Jen Tsai,001,2021-08-03_20h27.49.788,Dog face experiment_500-749,2021.1.4,Win32,60.17209218
,,,,,,p,1.8764,0,72,72,72,1,72,images/pixabay_dog_000012.jpg,images/pixabay_dog_000288.jpg,Yun-Jen Tsai,001,2021-08-03_20h27.49.788,Dog face experiment_500-749,2021.1.4,Win32,60.17209218
,,,,,,p,0.8097,0,73,73,73,1,73,images/pixabay_dog_000013.jpg,images/pixabay_dog_000289.jpg,Yun-Jen Tsai,001,2021-08-03_20h27.49.788,Dog face experiment_500-749,2021.1.4,Win32,60.17209218
,,,,,,p,0.8548,0,74,74,74,1,74,images/pixabay_dog_000014.jpg,images/pixabay_dog_000290.jpg,Yun-Jen Tsai,001,2021-08-03_20h27.49.788,Dog face experiment_500-749,2021.1.4,Win32,60.17209218
,,,,,,p,0.7037,0,75,75,75,1,75,images/pixabay_dog_000015.jpg,images/pixabay_dog_000291.jpg,Yun-Jen Tsai,001,2021-08-03_20h27.49.788,Dog face experiment_500-749,2021.1.4,Win32,60.17209218
,,,,,,q,1.4069,0,76,76,76,1,76,images/pixabay_dog_000016.jpg,images/pixabay_dog_000292.jpg,Yun-Jen Tsai,001,2021-08-03_20h27.49.788,Dog face experiment_500-749,2021.1.4,Win32,60.17209218
,,,,,,p,1.2546,0,77,77,77,1,77,images/pixabay_dog_000018.jpg,images/pixabay_dog_000293.jpg,Yun-Jen Tsai,001,2021-08-03_20h27.49.788,Dog face experiment_500-749,2021.1.4,Win32,60.17209218
,,,,,,q,1.7382,0,78,78,78,1,78,images/pixabay_dog_000019.jpg,images/pixabay_dog_000294.jpg,Yun-Jen Tsai,001,2021-08-03_20h27.49.788,Dog face experiment_500-749,2021.1.4,Win32,60.17209218
,,,,,,p,1.0895,0,79,79,79,1,79,images/pixabay_dog_000020.jpg,images/pixabay_dog_000295.jpg,Yun-Jen Tsai,001,2021-08-03_20h27.49.788,Dog face experiment_500-749,2021.1.4,Win32,60.17209218
,,,,,,q,0.8753,0,80,80,80,1,80,images/pixabay_dog_000021.jpg,images/pixabay_dog_000296.jpg,Yun-Jen Tsai,001,2021-08-03_20h27.49.788,Dog face experiment_500-749,2021.1.4,Win32,60.17209218
,,,,,,p,0.806,0,81,81,81,1,81,images/pixabay_dog_000022.jpg,images/pixabay_dog_000297.jpg,Yun-Jen Tsai,001,2021-08-03_20h27.49.788,Dog face experiment_500-749,2021.1.4,Win32,60.17209218
,,,,,,q,1.0771,0,82,82,82,1,82,images/pixabay_dog_000023.jpg,images/pixabay_dog_000299.jpg,Yun-Jen Tsai,001,2021-08-03_20h27.49.788,Dog face experiment_500-749,2021.1.4,Win32,60.17209218
,,,,,,q,1.7378,0,83,83,83,1,83,images/pixabay_dog_000024.jpg,images/pixabay_dog_000300.jpg,Yun-Jen Tsai,001,2021-08-03_20h27.49.788,Dog face experiment_500-749,2021.1.4,Win32,60.17209218
,,,,,,p,0.6189,0,84,84,84,1,84,images/pixabay_dog_000025.jpg,images/pixabay_dog_000302.jpg,Yun-Jen Tsai,001,2021-08-03_20h27.49.788,Dog face experiment_500-749,2021.1.4,Win32,60.17209218
,,,,,,q,1.2935,0,85,85,85,1,85,images/pixabay_dog_000026.jpg,images/pixabay_dog_000303.jpg,Yun-Jen Tsai,001,2021-08-03_20h27.49.788,Dog face experiment_500-749,2021.1.4,Win32,60.17209218
,,,,,,p,1.0207,0,86,86,86,1,86,images/pixabay_dog_000027.jpg,images/pixabay_dog_000304.jpg,Yun-Jen Tsai,001,2021-08-03_20h27.49.788,Dog face experiment_500-749,2021.1.4,Win32,60.17209218
,,,,,,q,0.9217,0,87,87,87,1,87,images/pixabay_dog_000028.jpg,images/pixabay_dog_000305.jpg,Yun-Jen Tsai,001,2021-08-03_20h27.49.788,Dog face experiment_500-749,2021.1.4,Win32,60.17209218
,,,,,,p,0.8902,0,88,88,88,1,88,images/pixabay_dog_000029.jpg,images/pixabay_dog_000306.jpg,Yun-Jen Tsai,001,2021-08-03_20h27.49.788,Dog face experiment_500-749,2021.1.4,Win32,60.17209218
,,,,,,q,1.124,0,89,89,89,1,89,images/pixabay_dog_000030.jpg,images/pixabay_dog_000308.jpg,Yun-Jen Tsai,001,2021-08-03_20h27.49.788,Dog face experiment_500-749,2021.1.4,Win32,60.17209218
,,,,,,p,0.7873,0,90,90,90,1,90,images/pixabay_dog_000031.jpg,images/pixabay_dog_000309.jpg,Yun-Jen Tsai,001,2021-08-03_20h27.49.788,Dog face experiment_500-749,2021.1.4,Win32,60.17209218
,,,,,,p,1.2099,0,91,91,91,1,91,images/pixabay_dog_000032.jpg,images/pixabay_dog_000310.jpg,Yun-Jen Tsai,001,2021-08-03_20h27.49.788,Dog face experiment_500-749,2021.1.4,Win32,60.17209218
,,,,,,p,0.9212,0,92,92,92,1,92,images/pixabay_dog_000033.jpg,images/pixabay_dog_000312.jpg,Yun-Jen Tsai,001,2021-08-03_20h27.49.788,Dog face experiment_500-749,2021.1.4,Win32,60.17209218
,,,,,,p,0.8893,0,93,93,93,1,93,images/pixabay_dog_000034.jpg,images/pixabay_dog_000313.jpg,Yun-Jen Tsai,001,2021-08-03_20h27.49.788,Dog face experiment_500-749,2021.1.4,Win32,60.17209218
,,,,,,p,0.7069,0,94,94,94,1,94,images/pixabay_dog_000035.jpg,images/pixabay_dog_000314.jpg,Yun-Jen Tsai,001,2021-08-03_20h27.49.788,Dog face experiment_500-749,2021.1.4,Win32,60.17209218
,,,,,,p,0.7919,0,95,95,95,1,95,images/pixabay_dog_000036.jpg,images/pixabay_dog_000315.jpg,Yun-Jen Tsai,001,2021-08-03_20h27.49.788,Dog face experiment_500-749,2021.1.4,Win32,60.17209218
,,,,,,p,0.907,0,96,96,96,1,96,images/pixabay_dog_000037.jpg,images/pixabay_dog_000316.jpg,Yun-Jen Tsai,001,2021-08-03_20h27.49.788,Dog face experiment_500-749,2021.1.4,Win32,60.17209218
,,,,,,p,0.8242,0,97,97,97,1,97,images/pixabay_dog_000038.jpg,images/pixabay_dog_000317.jpg,Yun-Jen Tsai,001,2021-08-03_20h27.49.788,Dog face experiment_500-749,2021.1.4,Win32,60.17209218
,,,,,,p,1.8379,0,98,98,98,1,98,images/pixabay_dog_000040.jpg,images/pixabay_dog_000318.jpg,Yun-Jen Tsai,001,2021-08-03_20h27.49.788,Dog face experiment_500-749,2021.1.4,Win32,60.17209218
,,,,,,q,1.7551,0,99,99,99,1,99,images/pixabay_dog_000041.jpg,images/pixabay_dog_000319.jpg,Yun-Jen Tsai,001,2021-08-03_20h27.49.788,Dog face experiment_500-749,2021.1.4,Win32,60.17209218
,,,,,,p,1.5877,0,100,100,100,1,100,images/pixabay_dog_000042.jpg,images/pixabay_dog_000320.jpg,Yun-Jen Tsai,001,2021-08-03_20h27.49.788,Dog face experiment_500-749,2021.1.4,Win32,60.17209218
,,,,,,q,1.0253,0,101,101,101,1,101,images/pixabay_dog_000043.jpg,images/pixabay_dog_000323.jpg,Yun-Jen Tsai,001,2021-08-03_20h27.49.788,Dog face experiment_500-749,2021.1.4,Win32,60.17209218
,,,,,,q,1.6219,0,102,102,102,1,102,images/pixabay_dog_000046.jpg,images/pixabay_dog_000324.jpg,Yun-Jen Tsai,001,2021-08-03_20h27.49.788,Dog face experiment_500-749,2021.1.4,Win32,60.17209218
,,,,,,p,0.7205,0,103,103,103,1,103,images/pixabay_dog_000047.jpg,images/pixabay_dog_000325.jpg,Yun-Jen Tsai,001,2021-08-03_20h27.49.788,Dog face experiment_500-749,2021.1.4,Win32,60.17209218
,,,,,,p,0.824,0,104,104,104,1,104,images/pixabay_dog_000048.jpg,images/pixabay_dog_000326.jpg,Yun-Jen Tsai,001,2021-08-03_20h27.49.788,Dog face experiment_500-749,2021.1.4,Win32,60.17209218
,,,,,,q,2.5876,0,105,105,105,1,105,images/pixabay_dog_000049.jpg,images/pixabay_dog_000328.jpg,Yun-Jen Tsai,001,2021-08-03_20h27.49.788,Dog face experiment_500-749,2021.1.4,Win32,60.17209218
,,,,,,p,1.4877,0,106,106,106,1,106,images/pixabay_dog_000050.jpg,images/pixabay_dog_000329.jpg,Yun-Jen Tsai,001,2021-08-03_20h27.49.788,Dog face experiment_500-749,2021.1.4,Win32,60.17209218
,,,,,,p,0.8284,0,107,107,107,1,107,images/pixabay_dog_000051.jpg,images/pixabay_dog_000331.jpg,Yun-Jen Tsai,001,2021-08-03_20h27.49.788,Dog face experiment_500-749,2021.1.4,Win32,60.17209218
,,,,,,q,1.0713,0,108,108,108,1,108,images/pixabay_dog_000052.jpg,images/pixabay_dog_000332.jpg,Yun-Jen Tsai,001,2021-08-03_20h27.49.788,Dog face experiment_500-749,2021.1.4,Win32,60.17209218
,,,,,,p,1.1224,0,109,109,109,1,109,images/pixabay_dog_000053.jpg,images/pixabay_dog_000333.jpg,Yun-Jen Tsai,001,2021-08-03_20h27.49.788,Dog face experiment_500-749,2021.1.4,Win32,60.17209218
,,,,,,q,1.4546,0,110,110,110,1,110,images/pixabay_dog_000054.jpg,images/pixabay_dog_000334.jpg,Yun-Jen Tsai,001,2021-08-03_20h27.49.788,Dog face experiment_500-749,2021.1.4,Win32,60.17209218
,,,,,,p,1.0628,0,111,111,111,1,111,images/pixabay_dog_000055.jpg,images/pixabay_dog_000335.jpg,Yun-Jen Tsai,001,2021-08-03_20h27.49.788,Dog face experiment_500-749,2021.1.4,Win32,60.17209218
,,,,,,p,0.8214,0,112,112,112,1,112,images/pixabay_dog_000056.jpg,images/pixabay_dog_000336.jpg,Yun-Jen Tsai,001,2021-08-03_20h27.49.788,Dog face experiment_500-749,2021.1.4,Win32,60.17209218
,,,,,,p,0.8534,0,113,113,113,1,113,images/pixabay_dog_000057.jpg,images/pixabay_dog_000337.jpg,Yun-Jen Tsai,001,2021-08-03_20h27.49.788,Dog face experiment_500-749,2021.1.4,Win32,60.17209218
,,,,,,p,0.8547,0,114,114,114,1,114,images/pixabay_dog_000058.jpg,images/pixabay_dog_000339.jpg,Yun-Jen Tsai,001,2021-08-03_20h27.49.788,Dog face experiment_500-749,2021.1.4,Win32,60.17209218
,,,,,,p,0.7714,0,115,115,115,1,115,images/pixabay_dog_000059.jpg,images/pixabay_dog_000340.jpg,Yun-Jen Tsai,001,2021-08-03_20h27.49.788,Dog face experiment_500-749,2021.1.4,Win32,60.17209218
,,,,,,q,1.1527,0,116,116,116,1,116,images/pixabay_dog_000060.jpg,images/pixabay_dog_000342.jpg,Yun-Jen Tsai,001,2021-08-03_20h27.49.788,Dog face experiment_500-749,2021.1.4,Win32,60.17209218
,,,,,,q,0.9396,0,117,117,117,1,117,images/pixabay_dog_000062.jpg,images/pixabay_dog_000343.jpg,Yun-Jen Tsai,001,2021-08-03_20h27.49.788,Dog face experiment_500-749,2021.1.4,Win32,60.17209218
,,,,,,q,0.8877,0,118,118,118,1,118,images/pixabay_dog_000063.jpg,images/pixabay_dog_000344.jpg,Yun-Jen Tsai,001,2021-08-03_20h27.49.788,Dog face experiment_500-749,2021.1.4,Win32,60.17209218
,,,,,,p,1.6757,0,119,119,119,1,119,images/pixabay_dog_000064.jpg,images/pixabay_dog_000345.jpg,Yun-Jen Tsai,001,2021-08-03_20h27.49.788,Dog face experiment_500-749,2021.1.4,Win32,60.17209218
,,,,,,p,0.654,0,120,120,120,1,120,images/pixabay_dog_000065.jpg,images/pixabay_dog_000346.jpg,Yun-Jen Tsai,001,2021-08-03_20h27.49.788,Dog face experiment_500-749,2021.1.4,Win32,60.17209218
,,,,,,p,1.6927,0,121,121,121,1,121,images/pixabay_dog_000066.jpg,images/pixabay_dog_000347.jpg,Yun-Jen Tsai,001,2021-08-03_20h27.49.788,Dog face experiment_500-749,2021.1.4,Win32,60.17209218
,,,,,,q,1.7542,0,122,122,122,1,122,images/pixabay_dog_000067.jpg,images/pixabay_dog_000348.jpg,Yun-Jen Tsai,001,2021-08-03_20h27.49.788,Dog face experiment_500-749,2021.1.4,Win32,60.17209218
,,,,,,p,1.2706,0,123,123,123,1,123,images/pixabay_dog_000068.jpg,images/pixabay_dog_000349.jpg,Yun-Jen Tsai,001,2021-08-03_20h27.49.788,Dog face experiment_500-749,2021.1.4,Win32,60.17209218
,,,,,,q,1.1426,0,124,124,124,1,124,images/pixabay_dog_000069.jpg,images/pixabay_dog_000350.jpg,Yun-Jen Tsai,001,2021-08-03_20h27.49.788,Dog face experiment_500-749,2021.1.4,Win32,60.17209218
,,,,,,p,1.4968,0,125,125,125,1,125,images/pixabay_dog_000070.jpg,images/pixabay_dog_000352.jpg,Yun-Jen Tsai,001,2021-08-03_20h27.49.788,Dog face experiment_500-749,2021.1.4,Win32,60.17209218
,,,,,,q,1.7543,0,126,126,126,1,126,images/pixabay_dog_000071.jpg,images/pixabay_dog_000353.jpg,Yun-Jen Tsai,001,2021-08-03_20h27.49.788,Dog face experiment_500-749,2021.1.4,Win32,60.17209218
,,,,,,p,1.1047,0,127,127,127,1,127,images/pixabay_dog_000072.jpg,images/pixabay_dog_000354.jpg,Yun-Jen Tsai,001,2021-08-03_20h27.49.788,Dog face experiment_500-749,2021.1.4,Win32,60.17209218
,,,,,,p,0.9379,0,128,128,128,1,128,images/pixabay_dog_000073.jpg,images/pixabay_dog_000355.jpg,Yun-Jen Tsai,001,2021-08-03_20h27.49.788,Dog face experiment_500-749,2021.1.4,Win32,60.17209218
,,,,,,p,0.8916,0,129,129,129,1,129,images/pixabay_dog_000074.jpg,images/pixabay_dog_000356.jpg,Yun-Jen Tsai,001,2021-08-03_20h27.49.788,Dog face experiment_500-749,2021.1.4,Win32,60.17209218
,,,,,,q,0.9378,0,130,130,130,1,130,images/pixabay_dog_000075.jpg,images/pixabay_dog_000358.jpg,Yun-Jen Tsai,001,2021-08-03_20h27.49.788,Dog face experiment_500-749,2021.1.4,Win32,60.17209218
,,,,,,p,0.8216,0,131,131,131,1,131,images/pixabay_dog_000076.jpg,images/pixabay_dog_000359.jpg,Yun-Jen Tsai,001,2021-08-03_20h27.49.788,Dog face experiment_500-749,2021.1.4,Win32,60.17209218
,,,,,,p,1.1095,0,132,132,132,1,132,images/pixabay_dog_000077.jpg,images/pixabay_dog_000360.jpg,Yun-Jen Tsai,001,2021-08-03_20h27.49.788,Dog face experiment_500-749,2021.1.4,Win32,60.17209218
,,,,,,q,0.9405,0,133,133,133,1,133,images/pixabay_dog_000078.jpg,images/pixabay_dog_000361.jpg,Yun-Jen Tsai,001,2021-08-03_20h27.49.788,Dog face experiment_500-749,2021.1.4,Win32,60.17209218
,,,,,,q,1.137,0,134,134,134,1,134,images/pixabay_dog_000079.jpg,images/pixabay_dog_000362.jpg,Yun-Jen Tsai,001,2021-08-03_20h27.49.788,Dog face experiment_500-749,2021.1.4,Win32,60.17209218
,,,,,,p,0.8379,0,135,135,135,1,135,images/pixabay_dog_000080.jpg,images/pixabay_dog_000363.jpg,Yun-Jen Tsai,001,2021-08-03_20h27.49.788,Dog face experiment_500-749,2021.1.4,Win32,60.17209218
,,,,,,q,0.813,0,136,136,136,1,136,images/pixabay_dog_000082.jpg,images/pixabay_dog_000364.jpg,Yun-Jen Tsai,001,2021-08-03_20h27.49.788,Dog face experiment_500-749,2021.1.4,Win32,60.17209218
,,,,,,q,0.8216,0,137,137,137,1,137,images/pixabay_dog_000083.jpg,images/pixabay_dog_000365.jpg,Yun-Jen Tsai,001,2021-08-03_20h27.49.788,Dog face experiment_500-749,2021.1.4,Win32,60.17209218
,,,,,,p,0.8542,0,138,138,138,1,138,images/pixabay_dog_000084.jpg,images/pixabay_dog_000366.jpg,Yun-Jen Tsai,001,2021-08-03_20h27.49.788,Dog face experiment_500-749,2021.1.4,Win32,60.17209218
,,,,,,p,0.6375,0,139,139,139,1,139,images/pixabay_dog_000085.jpg,images/pixabay_dog_000367.jpg,Yun-Jen Tsai,001,2021-08-03_20h27.49.788,Dog face experiment_500-749,2021.1.4,Win32,60.17209218
,,,,,,p,0.821,0,140,140,140,1,140,images/pixabay_dog_000087.jpg,images/pixabay_dog_000368.jpg,Yun-Jen Tsai,001,2021-08-03_20h27.49.788,Dog face experiment_500-749,2021.1.4,Win32,60.17209218
,,,,,,p,0.7094,0,141,141,141,1,141,images/pixabay_dog_000088.jpg,images/pixabay_dog_000369.jpg,Yun-Jen Tsai,001,2021-08-03_20h27.49.788,Dog face experiment_500-749,2021.1.4,Win32,60.17209218
,,,,,,q,0.9792,0,142,142,142,1,142,images/pixabay_dog_000089.jpg,images/pixabay_dog_000370.jpg,Yun-Jen Tsai,001,2021-08-03_20h27.49.788,Dog face experiment_500-749,2021.1.4,Win32,60.17209218
,,,,,,p,1.0206,0,143,143,143,1,143,images/pixabay_dog_000090.jpg,images/pixabay_dog_000371.jpg,Yun-Jen Tsai,001,2021-08-03_20h27.49.788,Dog face experiment_500-749,2021.1.4,Win32,60.17209218
,,,,,,q,0.9546,0,144,144,144,1,144,images/pixabay_dog_000091.jpg,images/pixabay_dog_000372.jpg,Yun-Jen Tsai,001,2021-08-03_20h27.49.788,Dog face experiment_500-749,2021.1.4,Win32,60.17209218
,,,,,,q,0.7782,0,145,145,145,1,145,images/pixabay_dog_000092.jpg,images/pixabay_dog_000374.jpg,Yun-Jen Tsai,001,2021-08-03_20h27.49.788,Dog face experiment_500-749,2021.1.4,Win32,60.17209218
,,,,,,q,0.9057,0,146,146,146,1,146,images/pixabay_dog_000093.jpg,images/pixabay_dog_000375.jpg,Yun-Jen Tsai,001,2021-08-03_20h27.49.788,Dog face experiment_500-749,2021.1.4,Win32,60.17209218
,,,,,,p,1.0443,0,147,147,147,1,147,images/pixabay_dog_000094.jpg,images/pixabay_dog_000376.jpg,Yun-Jen Tsai,001,2021-08-03_20h27.49.788,Dog face experiment_500-749,2021.1.4,Win32,60.17209218
,,,,,,p,1.0068,0,148,148,148,1,148,images/pixabay_dog_000095.jpg,images/pixabay_dog_000377.jpg,Yun-Jen Tsai,001,2021-08-03_20h27.49.788,Dog face experiment_500-749,2021.1.4,Win32,60.17209218
,,,,,,p,1.354,0,149,149,149,1,149,images/pixabay_dog_000096.jpg,images/pixabay_dog_000378.jpg,Yun-Jen Tsai,001,2021-08-03_20h27.49.788,Dog face experiment_500-749,2021.1.4,Win32,60.17209218
,,,,,,p,0.944,0,150,150,150,1,150,images/pixabay_dog_000097.jpg,images/pixabay_dog_000379.jpg,Yun-Jen Tsai,001,2021-08-03_20h27.49.788,Dog face experiment_500-749,2021.1.4,Win32,60.17209218
,,,,,,p,1.9792,0,151,151,151,1,151,images/pixabay_dog_000098.jpg,images/pixabay_dog_000380.jpg,Yun-Jen Tsai,001,2021-08-03_20h27.49.788,Dog face experiment_500-749,2021.1.4,Win32,60.17209218
,,,,,,p,2.2265,0,152,152,152,1,152,images/pixabay_dog_000099.jpg,images/pixabay_dog_000381.jpg,Yun-Jen Tsai,001,2021-08-03_20h27.49.788,Dog face experiment_500-749,2021.1.4,Win32,60.17209218
,,,,,,p,1.9636,0,153,153,153,1,153,images/pixabay_dog_000100.jpg,images/pixabay_dog_000383.jpg,Yun-Jen Tsai,001,2021-08-03_20h27.49.788,Dog face experiment_500-749,2021.1.4,Win32,60.17209218
,,,,,,p,0.8713,0,154,154,154,1,154,images/pixabay_dog_000101.jpg,images/pixabay_dog_000384.jpg,Yun-Jen Tsai,001,2021-08-03_20h27.49.788,Dog face experiment_500-749,2021.1.4,Win32,60.17209218
,,,,,,p,0.8045,0,155,155,155,1,155,images/pixabay_dog_000102.jpg,images/pixabay_dog_000385.jpg,Yun-Jen Tsai,001,2021-08-03_20h27.49.788,Dog face experiment_500-749,2021.1.4,Win32,60.17209218
,,,,,,q,0.8036,0,156,156,156,1,156,images/pixabay_dog_000103.jpg,images/pixabay_dog_000386.jpg,Yun-Jen Tsai,001,2021-08-03_20h27.49.788,Dog face experiment_500-749,2021.1.4,Win32,60.17209218
,,,,,,p,0.9547,0,157,157,157,1,157,images/pixabay_dog_000104.jpg,images/pixabay_dog_000387.jpg,Yun-Jen Tsai,001,2021-08-03_20h27.49.788,Dog face experiment_500-749,2021.1.4,Win32,60.17209218
,,,,,,p,0.8379,0,158,158,158,1,158,images/pixabay_dog_000105.jpg,images/pixabay_dog_000388.jpg,Yun-Jen Tsai,001,2021-08-03_20h27.49.788,Dog face experiment_500-749,2021.1.4,Win32,60.17209218
,,,,,,p,1.2584,0,159,159,159,1,159,images/pixabay_dog_000106.jpg,images/pixabay_dog_000389.jpg,Yun-Jen Tsai,001,2021-08-03_20h27.49.788,Dog face experiment_500-749,2021.1.4,Win32,60.17209218
,,,,,,p,1.9621,0,160,160,160,1,160,images/pixabay_dog_000107.jpg,images/pixabay_dog_000390.jpg,Yun-Jen Tsai,001,2021-08-03_20h27.49.788,Dog face experiment_500-749,2021.1.4,Win32,60.17209218
,,,,,,p,0.7395,0,161,161,161,1,161,images/pixabay_dog_000108.jpg,images/pixabay_dog_000391.jpg,Yun-Jen Tsai,001,2021-08-03_20h27.49.788,Dog face experiment_500-749,2021.1.4,Win32,60.17209218
,,,,,,q,1.2378,0,162,162,162,1,162,images/pixabay_dog_000109.jpg,images/pixabay_dog_000392.jpg,Yun-Jen Tsai,001,2021-08-03_20h27.49.788,Dog face experiment_500-749,2021.1.4,Win32,60.17209218
,,,,,,p,2.6212,0,163,163,163,1,163,images/pixabay_dog_000110.jpg,images/pixabay_dog_000394.jpg,Yun-Jen Tsai,001,2021-08-03_20h27.49.788,Dog face experiment_500-749,2021.1.4,Win32,60.17209218
,,,,,,p,0.7708,0,164,164,164,1,164,images/pixabay_dog_000111.jpg,images/pixabay_dog_000396.jpg,Yun-Jen Tsai,001,2021-08-03_20h27.49.788,Dog face experiment_500-749,2021.1.4,Win32,60.17209218
,,,,,,q,1.0543,0,165,165,165,1,165,images/pixabay_dog_000112.jpg,images/pixabay_dog_000397.jpg,Yun-Jen Tsai,001,2021-08-03_20h27.49.788,Dog face experiment_500-749,2021.1.4,Win32,60.17209218
,,,,,,q,1.0068,0,166,166,166,1,166,images/pixabay_dog_000113.jpg,images/pixabay_dog_000398.jpg,Yun-Jen Tsai,001,2021-08-03_20h27.49.788,Dog face experiment_500-749,2021.1.4,Win32,60.17209218
,,,,,,p,1.3548,0,167,167,167,1,167,images/pixabay_dog_000115.jpg,images/pixabay_dog_000399.jpg,Yun-Jen Tsai,001,2021-08-03_20h27.49.788,Dog face experiment_500-749,2021.1.4,Win32,60.17209218
,,,,,,q,0.9092,0,168,168,168,1,168,images/pixabay_dog_000116.jpg,images/pixabay_dog_000400.jpg,Yun-Jen Tsai,001,2021-08-03_20h27.49.788,Dog face experiment_500-749,2021.1.4,Win32,60.17209218
,,,,,,q,1.4415,0,169,169,169,1,169,images/pixabay_dog_000117.jpg,images/pixabay_dog_000401.jpg,Yun-Jen Tsai,001,2021-08-03_20h27.49.788,Dog face experiment_500-749,2021.1.4,Win32,60.17209218
,,,,,,q,1.2543,0,170,170,170,1,170,images/pixabay_dog_000118.jpg,images/pixabay_dog_000402.jpg,Yun-Jen Tsai,001,2021-08-03_20h27.49.788,Dog face experiment_500-749,2021.1.4,Win32,60.17209218
,,,,,,p,1.3545,0,171,171,171,1,171,images/pixabay_dog_000119.jpg,images/pixabay_dog_000403.jpg,Yun-Jen Tsai,001,2021-08-03_20h27.49.788,Dog face experiment_500-749,2021.1.4,Win32,60.17209218
,,,,,,p,1.456,0,172,172,172,1,172,images/pixabay_dog_000120.jpg,images/pixabay_dog_000404.jpg,Yun-Jen Tsai,001,2021-08-03_20h27.49.788,Dog face experiment_500-749,2021.1.4,Win32,60.17209218
,,,,,,p,0.8242,0,173,173,173,1,173,images/pixabay_dog_000122.jpg,images/pixabay_dog_000405.jpg,Yun-Jen Tsai,001,2021-08-03_20h27.49.788,Dog face experiment_500-749,2021.1.4,Win32,60.17209218
,,,,,,q,0.8446,0,174,174,174,1,174,images/pixabay_dog_000123.jpg,images/pixabay_dog_000406.jpg,Yun-Jen Tsai,001,2021-08-03_20h27.49.788,Dog face experiment_500-749,2021.1.4,Win32,60.17209218
,,,,,,q,1.1547,0,175,175,175,1,175,images/pixabay_dog_000124.jpg,images/pixabay_dog_000407.jpg,Yun-Jen Tsai,001,2021-08-03_20h27.49.788,Dog face experiment_500-749,2021.1.4,Win32,60.17209218
,,,,,,p,1.1878,0,176,176,176,1,176,images/pixabay_dog_000125.jpg,images/pixabay_dog_000408.jpg,Yun-Jen Tsai,001,2021-08-03_20h27.49.788,Dog face experiment_500-749,2021.1.4,Win32,60.17209218
,,,,,,p,1.1563,0,177,177,177,1,177,images/pixabay_dog_000126.jpg,images/pixabay_dog_000411.jpg,Yun-Jen Tsai,001,2021-08-03_20h27.49.788,Dog face experiment_500-749,2021.1.4,Win32,60.17209218
,,,,,,q,0.9544,0,178,178,178,1,178,images/pixabay_dog_000127.jpg,images/pixabay_dog_000412.jpg,Yun-Jen Tsai,001,2021-08-03_20h27.49.788,Dog face experiment_500-749,2021.1.4,Win32,60.17209218
,,,,,,p,1.6211,0,179,179,179,1,179,images/pixabay_dog_000128.jpg,images/pixabay_dog_000413.jpg,Yun-Jen Tsai,001,2021-08-03_20h27.49.788,Dog face experiment_500-749,2021.1.4,Win32,60.17209218
,,,,,,p,0.7283,0,180,180,180,1,180,images/pixabay_dog_000129.jpg,images/pixabay_dog_000414.jpg,Yun-Jen Tsai,001,2021-08-03_20h27.49.788,Dog face experiment_500-749,2021.1.4,Win32,60.17209218
,,,,,,q,1.1582,0,181,181,181,1,181,images/pixabay_dog_000130.jpg,images/pixabay_dog_000415.jpg,Yun-Jen Tsai,001,2021-08-03_20h27.49.788,Dog face experiment_500-749,2021.1.4,Win32,60.17209218
,,,,,,q,1.3253,0,182,182,182,1,182,images/pixabay_dog_000131.jpg,images/pixabay_dog_000416.jpg,Yun-Jen Tsai,001,2021-08-03_20h27.49.788,Dog face experiment_500-749,2021.1.4,Win32,60.17209218
,,,,,,q,2.4047,0,183,183,183,1,183,images/pixabay_dog_000132.jpg,images/pixabay_dog_000417.jpg,Yun-Jen Tsai,001,2021-08-03_20h27.49.788,Dog face experiment_500-749,2021.1.4,Win32,60.17209218
,,,,,,q,1.1887,0,184,184,184,1,184,images/pixabay_dog_000133.jpg,images/pixabay_dog_000418.jpg,Yun-Jen Tsai,001,2021-08-03_20h27.49.788,Dog face experiment_500-749,2021.1.4,Win32,60.17209218
,,,,,,q,1.4094,0,185,185,185,1,185,images/pixabay_dog_000134.jpg,images/pixabay_dog_000419.jpg,Yun-Jen Tsai,001,2021-08-03_20h27.49.788,Dog face experiment_500-749,2021.1.4,Win32,60.17209218
,,,,,,p,0.7591,0,186,186,186,1,186,images/pixabay_dog_000136.jpg,images/pixabay_dog_000420.jpg,Yun-Jen Tsai,001,2021-08-03_20h27.49.788,Dog face experiment_500-749,2021.1.4,Win32,60.17209218
,,,,,,p,0.7946,0,187,187,187,1,187,images/pixabay_dog_000137.jpg,images/pixabay_dog_000421.jpg,Yun-Jen Tsai,001,2021-08-03_20h27.49.788,Dog face experiment_500-749,2021.1.4,Win32,60.17209218
,,,,,,p,0.9225,0,188,188,188,1,188,images/pixabay_dog_000138.jpg,images/pixabay_dog_000422.jpg,Yun-Jen Tsai,001,2021-08-03_20h27.49.788,Dog face experiment_500-749,2021.1.4,Win32,60.17209218
,,,,,,q,0.8061,0,189,189,189,1,189,images/pixabay_dog_000139.jpg,images/pixabay_dog_000423.jpg,Yun-Jen Tsai,001,2021-08-03_20h27.49.788,Dog face experiment_500-749,2021.1.4,Win32,60.17209218
,,,,,,p,1.1378,0,190,190,190,1,190,images/pixabay_dog_000141.jpg,images/pixabay_dog_000424.jpg,Yun-Jen Tsai,001,2021-08-03_20h27.49.788,Dog face experiment_500-749,2021.1.4,Win32,60.17209218
,,,,,,q,0.9706,0,191,191,191,1,191,images/pixabay_dog_000142.jpg,images/pixabay_dog_000425.jpg,Yun-Jen Tsai,001,2021-08-03_20h27.49.788,Dog face experiment_500-749,2021.1.4,Win32,60.17209218
,,,,,,q,1.6875,0,192,192,192,1,192,images/pixabay_dog_000143.jpg,images/pixabay_dog_000426.jpg,Yun-Jen Tsai,001,2021-08-03_20h27.49.788,Dog face experiment_500-749,2021.1.4,Win32,60.17209218
,,,,,,p,0.8388,0,193,193,193,1,193,images/pixabay_dog_000144.jpg,images/pixabay_dog_000427.jpg,Yun-Jen Tsai,001,2021-08-03_20h27.49.788,Dog face experiment_500-749,2021.1.4,Win32,60.17209218
,,,,,,q,0.7951,0,194,194,194,1,194,images/pixabay_dog_000145.jpg,images/pixabay_dog_000428.jpg,Yun-Jen Tsai,001,2021-08-03_20h27.49.788,Dog face experiment_500-749,2021.1.4,Win32,60.17209218
,,,,,,q,1.0389,0,195,195,195,1,195,images/pixabay_dog_000146.jpg,images/pixabay_dog_000429.jpg,Yun-Jen Tsai,001,2021-08-03_20h27.49.788,Dog face experiment_500-749,2021.1.4,Win32,60.17209218
,,,,,,q,1.6389,0,196,196,196,1,196,images/pixabay_dog_000147.jpg,images/pixabay_dog_000430.jpg,Yun-Jen Tsai,001,2021-08-03_20h27.49.788,Dog face experiment_500-749,2021.1.4,Win32,60.17209218
,,,,,,p,2.0381,0,197,197,197,1,197,images/pixabay_dog_000148.jpg,images/pixabay_dog_000431.jpg,Yun-Jen Tsai,001,2021-08-03_20h27.49.788,Dog face experiment_500-749,2021.1.4,Win32,60.17209218
,,,,,,p,0.7906,0,198,198,198,1,198,images/pixabay_dog_000149.jpg,images/pixabay_dog_000432.jpg,Yun-Jen Tsai,001,2021-08-03_20h27.49.788,Dog face experiment_500-749,2021.1.4,Win32,60.17209218
,,,,,,q,1.4894,0,199,199,199,1,199,images/pixabay_dog_000150.jpg,images/pixabay_dog_000433.jpg,Yun-Jen Tsai,001,2021-08-03_20h27.49.788,Dog face experiment_500-749,2021.1.4,Win32,60.17209218
,,,,,,p,1.5541,0,200,200,200,1,200,images/pixabay_dog_000151.jpg,images/pixabay_dog_000434.jpg,Yun-Jen Tsai,001,2021-08-03_20h27.49.788,Dog face experiment_500-749,2021.1.4,Win32,60.17209218
,,,,,,q,1.5603,0,201,201,201,1,201,images/pixabay_dog_000153.jpg,images/pixabay_dog_000435.jpg,Yun-Jen Tsai,001,2021-08-03_20h27.49.788,Dog face experiment_500-749,2021.1.4,Win32,60.17209218
,,,,,,p,1.8293,0,202,202,202,1,202,images/pixabay_dog_000154.jpg,images/pixabay_dog_000436.jpg,Yun-Jen Tsai,001,2021-08-03_20h27.49.788,Dog face experiment_500-749,2021.1.4,Win32,60.17209218
,,,,,,p,1.1108,0,203,203,203,1,203,images/pixabay_dog_000155.jpg,images/pixabay_dog_000437.jpg,Yun-Jen Tsai,001,2021-08-03_20h27.49.788,Dog face experiment_500-749,2021.1.4,Win32,60.17209218
,,,,,,p,1.1454,0,204,204,204,1,204,images/pixabay_dog_000156.jpg,images/pixabay_dog_000438.jpg,Yun-Jen Tsai,001,2021-08-03_20h27.49.788,Dog face experiment_500-749,2021.1.4,Win32,60.17209218
,,,,,,p,0.9422,0,205,205,205,1,205,images/pixabay_dog_000157.jpg,images/pixabay_dog_000439.jpg,Yun-Jen Tsai,001,2021-08-03_20h27.49.788,Dog face experiment_500-749,2021.1.4,Win32,60.17209218
,,,,,,q,0.931,0,206,206,206,1,206,images/pixabay_dog_000158.jpg,images/pixabay_dog_000440.jpg,Yun-Jen Tsai,001,2021-08-03_20h27.49.788,Dog face experiment_500-749,2021.1.4,Win32,60.17209218
,,,,,,q,1.0587,0,207,207,207,1,207,images/pixabay_dog_000159.jpg,images/pixabay_dog_000441.jpg,Yun-Jen Tsai,001,2021-08-03_20h27.49.788,Dog face experiment_500-749,2021.1.4,Win32,60.17209218
,,,,,,q,1.1411,0,208,208,208,1,208,images/pixabay_dog_000160.jpg,images/pixabay_dog_000443.jpg,Yun-Jen Tsai,001,2021-08-03_20h27.49.788,Dog face experiment_500-749,2021.1.4,Win32,60.17209218
,,,,,,q,0.971,0,209,209,209,1,209,images/pixabay_dog_000161.jpg,images/pixabay_dog_000444.jpg,Yun-Jen Tsai,001,2021-08-03_20h27.49.788,Dog face experiment_500-749,2021.1.4,Win32,60.17209218
,,,,,,q,0.7722,0,210,210,210,1,210,images/pixabay_dog_000162.jpg,images/pixabay_dog_000445.jpg,Yun-Jen Tsai,001,2021-08-03_20h27.49.788,Dog face experiment_500-749,2021.1.4,Win32,60.17209218
,,,,,,q,1.1728,0,211,211,211,1,211,images/pixabay_dog_000163.jpg,images/pixabay_dog_000446.jpg,Yun-Jen Tsai,001,2021-08-03_20h27.49.788,Dog face experiment_500-749,2021.1.4,Win32,60.17209218
,,,,,,q,1.1261,0,212,212,212,1,212,images/pixabay_dog_000164.jpg,images/pixabay_dog_000447.jpg,Yun-Jen Tsai,001,2021-08-03_20h27.49.788,Dog face experiment_500-749,2021.1.4,Win32,60.17209218
,,,,,,p,1.357,0,213,213,213,1,213,images/pixabay_dog_000165.jpg,images/pixabay_dog_000448.jpg,Yun-Jen Tsai,001,2021-08-03_20h27.49.788,Dog face experiment_500-749,2021.1.4,Win32,60.17209218
,,,,,,q,1.1208,0,214,214,214,1,214,images/pixabay_dog_000167.jpg,images/pixabay_dog_000449.jpg,Yun-Jen Tsai,001,2021-08-03_20h27.49.788,Dog face experiment_500-749,2021.1.4,Win32,60.17209218
,,,,,,q,1.2057,0,215,215,215,1,215,images/pixabay_dog_000168.jpg,images/pixabay_dog_000450.jpg,Yun-Jen Tsai,001,2021-08-03_20h27.49.788,Dog face experiment_500-749,2021.1.4,Win32,60.17209218
,,,,,,q,1.0377,0,216,216,216,1,216,images/pixabay_dog_000169.jpg,images/pixabay_dog_000451.jpg,Yun-Jen Tsai,001,2021-08-03_20h27.49.788,Dog face experiment_500-749,2021.1.4,Win32,60.17209218
,,,,,,q,2.0754,0,217,217,217,1,217,images/pixabay_dog_000170.jpg,images/pixabay_dog_000456.jpg,Yun-Jen Tsai,001,2021-08-03_20h27.49.788,Dog face experiment_500-749,2021.1.4,Win32,60.17209218
,,,,,,p,1.3215,0,218,218,218,1,218,images/pixabay_dog_000171.jpg,images/pixabay_dog_000457.jpg,Yun-Jen Tsai,001,2021-08-03_20h27.49.788,Dog face experiment_500-749,2021.1.4,Win32,60.17209218
,,,,,,p,0.8045,0,219,219,219,1,219,images/pixabay_dog_000172.jpg,images/pixabay_dog_000458.jpg,Yun-Jen Tsai,001,2021-08-03_20h27.49.788,Dog face experiment_500-749,2021.1.4,Win32,60.17209218
,,,,,,q,2.004,0,220,220,220,1,220,images/pixabay_dog_000173.jpg,images/pixabay_dog_000459.jpg,Yun-Jen Tsai,001,2021-08-03_20h27.49.788,Dog face experiment_500-749,2021.1.4,Win32,60.17209218
,,,,,,q,1.0699,0,221,221,221,1,221,images/pixabay_dog_000174.jpg,images/pixabay_dog_000460.jpg,Yun-Jen Tsai,001,2021-08-03_20h27.49.788,Dog face experiment_500-749,2021.1.4,Win32,60.17209218
,,,,,,p,1.0546,0,222,222,222,1,222,images/pixabay_dog_000175.jpg,images/pixabay_dog_000461.jpg,Yun-Jen Tsai,001,2021-08-03_20h27.49.788,Dog face experiment_500-749,2021.1.4,Win32,60.17209218
,,,,,,q,1.2368,0,223,223,223,1,223,images/pixabay_dog_000177.jpg,images/pixabay_dog_000462.jpg,Yun-Jen Tsai,001,2021-08-03_20h27.49.788,Dog face experiment_500-749,2021.1.4,Win32,60.17209218
,,,,,,p,1.6441,0,224,224,224,1,224,images/pixabay_dog_000178.jpg,images/pixabay_dog_000463.jpg,Yun-Jen Tsai,001,2021-08-03_20h27.49.788,Dog face experiment_500-749,2021.1.4,Win32,60.17209218
,,,,,,p,1.3421,0,225,225,225,1,225,images/pixabay_dog_000179.jpg,images/pixabay_dog_000464.jpg,Yun-Jen Tsai,001,2021-08-03_20h27.49.788,Dog face experiment_500-749,2021.1.4,Win32,60.17209218
,,,,,,p,1.6962,0,226,226,226,1,226,images/pixabay_dog_000180.jpg,images/pixabay_dog_000465.jpg,Yun-Jen Tsai,001,2021-08-03_20h27.49.788,Dog face experiment_500-749,2021.1.4,Win32,60.17209218
,,,,,,p,1.5876,0,227,227,227,1,227,images/pixabay_dog_000181.jpg,images/pixabay_dog_000466.jpg,Yun-Jen Tsai,001,2021-08-03_20h27.49.788,Dog face experiment_500-749,2021.1.4,Win32,60.17209218
,,,,,,p,0.9747,0,228,228,228,1,228,images/pixabay_dog_000182.jpg,images/pixabay_dog_000467.jpg,Yun-Jen Tsai,001,2021-08-03_20h27.49.788,Dog face experiment_500-749,2021.1.4,Win32,60.17209218
,,,,,,p,1.2444,0,229,229,229,1,229,images/pixabay_dog_000183.jpg,images/pixabay_dog_000468.jpg,Yun-Jen Tsai,001,2021-08-03_20h27.49.788,Dog face experiment_500-749,2021.1.4,Win32,60.17209218
,,,,,,q,2.1897,0,230,230,230,1,230,images/pixabay_dog_000184.jpg,images/pixabay_dog_000469.jpg,Yun-Jen Tsai,001,2021-08-03_20h27.49.788,Dog face experiment_500-749,2021.1.4,Win32,60.17209218
,,,,,,p,1.321,0,231,231,231,1,231,images/pixabay_dog_000187.jpg,images/pixabay_dog_000470.jpg,Yun-Jen Tsai,001,2021-08-03_20h27.49.788,Dog face experiment_500-749,2021.1.4,Win32,60.17209218
,,,,,,p,0.979,0,232,232,232,1,232,images/pixabay_dog_000188.jpg,images/pixabay_dog_000472.jpg,Yun-Jen Tsai,001,2021-08-03_20h27.49.788,Dog face experiment_500-749,2021.1.4,Win32,60.17209218
,,,,,,q,0.7413,0,233,233,233,1,233,images/pixabay_dog_000189.jpg,images/pixabay_dog_000474.jpg,Yun-Jen Tsai,001,2021-08-03_20h27.49.788,Dog face experiment_500-749,2021.1.4,Win32,60.17209218
,,,,,,q,2.0226,0,234,234,234,1,234,images/pixabay_dog_000190.jpg,images/pixabay_dog_000475.jpg,Yun-Jen Tsai,001,2021-08-03_20h27.49.788,Dog face experiment_500-749,2021.1.4,Win32,60.17209218
,,,,,,q,1.6261,0,235,235,235,1,235,images/pixabay_dog_000191.jpg,images/pixabay_dog_000476.jpg,Yun-Jen Tsai,001,2021-08-03_20h27.49.788,Dog face experiment_500-749,2021.1.4,Win32,60.17209218
,,,,,,q,1.7241,0,236,236,236,1,236,images/pixabay_dog_000192.jpg,images/pixabay_dog_000477.jpg,Yun-Jen Tsai,001,2021-08-03_20h27.49.788,Dog face experiment_500-749,2021.1.4,Win32,60.17209218
,,,,,,q,1.1596,0,237,237,237,1,237,images/pixabay_dog_000193.jpg,images/pixabay_dog_000478.jpg,Yun-Jen Tsai,001,2021-08-03_20h27.49.788,Dog face experiment_500-749,2021.1.4,Win32,60.17209218
,,,,,,p,0.9047,0,238,238,238,1,238,images/pixabay_dog_000194.jpg,images/pixabay_dog_000479.jpg,Yun-Jen Tsai,001,2021-08-03_20h27.49.788,Dog face experiment_500-749,2021.1.4,Win32,60.17209218
,,,,,,p,0.888,0,239,239,239,1,239,images/pixabay_dog_000195.jpg,images/pixabay_dog_000481.jpg,Yun-Jen Tsai,001,2021-08-03_20h27.49.788,Dog face experiment_500-749,2021.1.4,Win32,60.17209218
,,,,,,p,0.9126,0,240,240,240,1,240,images/pixabay_dog_000196.jpg,images/pixabay_dog_000483.jpg,Yun-Jen Tsai,001,2021-08-03_20h27.49.788,Dog face experiment_500-749,2021.1.4,Win32,60.17209218
,,,,,,q,1.1452,0,241,241,241,1,241,images/pixabay_dog_000197.jpg,images/pixabay_dog_000485.jpg,Yun-Jen Tsai,001,2021-08-03_20h27.49.788,Dog face experiment_500-749,2021.1.4,Win32,60.17209218
,,,,,,q,1.7392,0,242,242,242,1,242,images/pixabay_dog_000198.jpg,images/pixabay_dog_000486.jpg,Yun-Jen Tsai,001,2021-08-03_20h27.49.788,Dog face experiment_500-749,2021.1.4,Win32,60.17209218
,,,,,,p,2.0057,0,243,243,243,1,243,images/pixabay_dog_000199.jpg,images/pixabay_dog_000487.jpg,Yun-Jen Tsai,001,2021-08-03_20h27.49.788,Dog face experiment_500-749,2021.1.4,Win32,60.17209218
,,,,,,q,0.96,0,244,244,244,1,244,images/pixabay_dog_000200.jpg,images/pixabay_dog_000488.jpg,Yun-Jen Tsai,001,2021-08-03_20h27.49.788,Dog face experiment_500-749,2021.1.4,Win32,60.17209218
,,,,,,q,1.0469,0,245,245,245,1,245,images/pixabay_dog_000202.jpg,images/pixabay_dog_000489.jpg,Yun-Jen Tsai,001,2021-08-03_20h27.49.788,Dog face experiment_500-749,2021.1.4,Win32,60.17209218
,,,,,,p,1.4627,0,246,246,246,1,246,images/pixabay_dog_000203.jpg,images/pixabay_dog_000492.jpg,Yun-Jen Tsai,001,2021-08-03_20h27.49.788,Dog face experiment_500-749,2021.1.4,Win32,60.17209218
,,,,,,q,0.9721,0,247,247,247,1,247,images/pixabay_dog_000204.jpg,images/pixabay_dog_000493.jpg,Yun-Jen Tsai,001,2021-08-03_20h27.49.788,Dog face experiment_500-749,2021.1.4,Win32,60.17209218
,,,,,,q,1.555,0,248,248,248,1,248,images/pixabay_dog_000205.jpg,images/pixabay_dog_000495.jpg,Yun-Jen Tsai,001,2021-08-03_20h27.49.788,Dog face experiment_500-749,2021.1.4,Win32,60.17209218
,,,,,,q,1.5799,0,249,249,249,1,249,images/pixabay_dog_000207.jpg,images/pixabay_dog_000496.jpg,Yun-Jen Tsai,001,2021-08-03_20h27.49.788,Dog face experiment_500-749,2021.1.4,Win32,60.17209218
