key_resp.keys,key_resp.rt,key_resp_2.keys,key_resp_2.rt,key_resp_3.keys,key_resp_3.rt,key_resp_4.keys,key_resp_4.rt,trials.thisRepN,trials.thisTrialN,trials.thisN,trials.thisIndex,trials.ran,trail_nums,img1,img2,participant,session,date,expName,psychopyVersion,OS,frameRate
space,0.8268,space,0.5425,space,0.4965,p,2.2162,0,0,0,0,1,0,images/pixabay_dog_000497.jpg,images/pixabay_dog_000777.jpg,Yun-Jen Tsai,001,2021-08-03_20h38.31.475,Dog face experiment_750-999,2021.1.4,Win32,60.08532116
,,,,,,p,0.8361,0,1,1,1,1,1,images/pixabay_dog_000498.jpg,images/pixabay_dog_000778.jpg,Yun-Jen Tsai,001,2021-08-03_20h38.31.475,Dog face experiment_750-999,2021.1.4,Win32,60.08532116
,,,,,,p,1.0806,0,2,2,2,1,2,images/pixabay_dog_000501.jpg,images/pixabay_dog_000779.jpg,Yun-Jen Tsai,001,2021-08-03_20h38.31.475,Dog face experiment_750-999,2021.1.4,Win32,60.08532116
,,,,,,q,1.1591,0,3,3,3,1,3,images/pixabay_dog_000502.jpg,images/pixabay_dog_000780.jpg,Yun-Jen Tsai,001,2021-08-03_20h38.31.475,Dog face experiment_750-999,2021.1.4,Win32,60.08532116
,,,,,,q,1.6286,0,4,4,4,1,4,images/pixabay_dog_000503.jpg,images/pixabay_dog_000781.jpg,Yun-Jen Tsai,001,2021-08-03_20h38.31.475,Dog face experiment_750-999,2021.1.4,Win32,60.08532116
,,,,,,q,1.2116,0,5,5,5,1,5,images/pixabay_dog_000505.jpg,images/pixabay_dog_000782.jpg,Yun-Jen Tsai,001,2021-08-03_20h38.31.475,Dog face experiment_750-999,2021.1.4,Win32,60.08532116
,,,,,,q,0.844,0,6,6,6,1,6,images/pixabay_dog_000506.jpg,images/pixabay_dog_000783.jpg,Yun-Jen Tsai,001,2021-08-03_20h38.31.475,Dog face experiment_750-999,2021.1.4,Win32,60.08532116
,,,,,,q,1.1738,0,7,7,7,1,7,images/pixabay_dog_000509.jpg,images/pixabay_dog_000784.jpg,Yun-Jen Tsai,001,2021-08-03_20h38.31.475,Dog face experiment_750-999,2021.1.4,Win32,60.08532116
,,,,,,q,1.2068,0,8,8,8,1,8,images/pixabay_dog_000510.jpg,images/pixabay_dog_000785.jpg,Yun-Jen Tsai,001,2021-08-03_20h38.31.475,Dog face experiment_750-999,2021.1.4,Win32,60.08532116
,,,,,,p,1.0207,0,9,9,9,1,9,images/pixabay_dog_000511.jpg,images/pixabay_dog_000786.jpg,Yun-Jen Tsai,001,2021-08-03_20h38.31.475,Dog face experiment_750-999,2021.1.4,Win32,60.08532116
,,,,,,q,1.1227,0,10,10,10,1,10,images/pixabay_dog_000512.jpg,images/pixabay_dog_000787.jpg,Yun-Jen Tsai,001,2021-08-03_20h38.31.475,Dog face experiment_750-999,2021.1.4,Win32,60.08532116
,,,,,,p,0.8261,0,11,11,11,1,11,images/pixabay_dog_000513.jpg,images/pixabay_dog_000788.jpg,Yun-Jen Tsai,001,2021-08-03_20h38.31.475,Dog face experiment_750-999,2021.1.4,Win32,60.08532116
,,,,,,p,1.5562,0,12,12,12,1,12,images/pixabay_dog_000514.jpg,images/pixabay_dog_000789.jpg,Yun-Jen Tsai,001,2021-08-03_20h38.31.475,Dog face experiment_750-999,2021.1.4,Win32,60.08532116
,,,,,,p,1.1429,0,13,13,13,1,13,images/pixabay_dog_000515.jpg,images/pixabay_dog_000792.jpg,Yun-Jen Tsai,001,2021-08-03_20h38.31.475,Dog face experiment_750-999,2021.1.4,Win32,60.08532116
,,,,,,p,0.7547,0,14,14,14,1,14,images/pixabay_dog_000516.jpg,images/pixabay_dog_000793.jpg,Yun-Jen Tsai,001,2021-08-03_20h38.31.475,Dog face experiment_750-999,2021.1.4,Win32,60.08532116
,,,,,,p,0.6541,0,15,15,15,1,15,images/pixabay_dog_000517.jpg,images/pixabay_dog_000795.jpg,Yun-Jen Tsai,001,2021-08-03_20h38.31.475,Dog face experiment_750-999,2021.1.4,Win32,60.08532116
,,,,,,p,0.8787,0,16,16,16,1,16,images/pixabay_dog_000518.jpg,images/pixabay_dog_000796.jpg,Yun-Jen Tsai,001,2021-08-03_20h38.31.475,Dog face experiment_750-999,2021.1.4,Win32,60.08532116
,,,,,,q,1.0538,0,17,17,17,1,17,images/pixabay_dog_000519.jpg,images/pixabay_dog_000797.jpg,Yun-Jen Tsai,001,2021-08-03_20h38.31.475,Dog face experiment_750-999,2021.1.4,Win32,60.08532116
,,,,,,p,1.0429,0,18,18,18,1,18,images/pixabay_dog_000520.jpg,images/pixabay_dog_000798.jpg,Yun-Jen Tsai,001,2021-08-03_20h38.31.475,Dog face experiment_750-999,2021.1.4,Win32,60.08532116
,,,,,,q,1.0546,0,19,19,19,1,19,images/pixabay_dog_000522.jpg,images/pixabay_dog_000800.jpg,Yun-Jen Tsai,001,2021-08-03_20h38.31.475,Dog face experiment_750-999,2021.1.4,Win32,60.08532116
,,,,,,q,1.4211,0,20,20,20,1,20,images/pixabay_dog_000523.jpg,images/pixabay_dog_000801.jpg,Yun-Jen Tsai,001,2021-08-03_20h38.31.475,Dog face experiment_750-999,2021.1.4,Win32,60.08532116
,,,,,,q,0.9874,0,21,21,21,1,21,images/pixabay_dog_000524.jpg,images/pixabay_dog_000802.jpg,Yun-Jen Tsai,001,2021-08-03_20h38.31.475,Dog face experiment_750-999,2021.1.4,Win32,60.08532116
,,,,,,p,0.8925,0,22,22,22,1,22,images/pixabay_dog_000525.jpg,images/pixabay_dog_000803.jpg,Yun-Jen Tsai,001,2021-08-03_20h38.31.475,Dog face experiment_750-999,2021.1.4,Win32,60.08532116
,,,,,,p,0.9291,0,23,23,23,1,23,images/pixabay_dog_000526.jpg,images/pixabay_dog_000804.jpg,Yun-Jen Tsai,001,2021-08-03_20h38.31.475,Dog face experiment_750-999,2021.1.4,Win32,60.08532116
,,,,,,q,1.0237,0,24,24,24,1,24,images/pixabay_dog_000527.jpg,images/pixabay_dog_000805.jpg,Yun-Jen Tsai,001,2021-08-03_20h38.31.475,Dog face experiment_750-999,2021.1.4,Win32,60.08532116
,,,,,,p,0.7716,0,25,25,25,1,25,images/pixabay_dog_000528.jpg,images/pixabay_dog_000806.jpg,Yun-Jen Tsai,001,2021-08-03_20h38.31.475,Dog face experiment_750-999,2021.1.4,Win32,60.08532116
,,,,,,q,1.5864,0,26,26,26,1,26,images/pixabay_dog_000529.jpg,images/pixabay_dog_000807.jpg,Yun-Jen Tsai,001,2021-08-03_20h38.31.475,Dog face experiment_750-999,2021.1.4,Win32,60.08532116
,,,,,,p,0.9402,0,27,27,27,1,27,images/pixabay_dog_000530.jpg,images/pixabay_dog_000808.jpg,Yun-Jen Tsai,001,2021-08-03_20h38.31.475,Dog face experiment_750-999,2021.1.4,Win32,60.08532116
,,,,,,p,0.6738,0,28,28,28,1,28,images/pixabay_dog_000531.jpg,images/pixabay_dog_000809.jpg,Yun-Jen Tsai,001,2021-08-03_20h38.31.475,Dog face experiment_750-999,2021.1.4,Win32,60.08532116
,,,,,,p,0.6894,0,29,29,29,1,29,images/pixabay_dog_000532.jpg,images/pixabay_dog_000810.jpg,Yun-Jen Tsai,001,2021-08-03_20h38.31.475,Dog face experiment_750-999,2021.1.4,Win32,60.08532116
,,,,,,q,1.4119,0,30,30,30,1,30,images/pixabay_dog_000533.jpg,images/pixabay_dog_000811.jpg,Yun-Jen Tsai,001,2021-08-03_20h38.31.475,Dog face experiment_750-999,2021.1.4,Win32,60.08532116
,,,,,,q,1.0771,0,31,31,31,1,31,images/pixabay_dog_000535.jpg,images/pixabay_dog_000812.jpg,Yun-Jen Tsai,001,2021-08-03_20h38.31.475,Dog face experiment_750-999,2021.1.4,Win32,60.08532116
,,,,,,p,0.8238,0,32,32,32,1,32,images/pixabay_dog_000536.jpg,images/pixabay_dog_000813.jpg,Yun-Jen Tsai,001,2021-08-03_20h38.31.475,Dog face experiment_750-999,2021.1.4,Win32,60.08532116
,,,,,,q,0.9585,0,33,33,33,1,33,images/pixabay_dog_000537.jpg,images/pixabay_dog_000814.jpg,Yun-Jen Tsai,001,2021-08-03_20h38.31.475,Dog face experiment_750-999,2021.1.4,Win32,60.08532116
,,,,,,q,0.8374,0,34,34,34,1,34,images/pixabay_dog_000538.jpg,images/pixabay_dog_000815.jpg,Yun-Jen Tsai,001,2021-08-03_20h38.31.475,Dog face experiment_750-999,2021.1.4,Win32,60.08532116
,,,,,,p,1.0206,0,35,35,35,1,35,images/pixabay_dog_000539.jpg,images/pixabay_dog_000817.jpg,Yun-Jen Tsai,001,2021-08-03_20h38.31.475,Dog face experiment_750-999,2021.1.4,Win32,60.08532116
,,,,,,p,1.0028,0,36,36,36,1,36,images/pixabay_dog_000540.jpg,images/pixabay_dog_000819.jpg,Yun-Jen Tsai,001,2021-08-03_20h38.31.475,Dog face experiment_750-999,2021.1.4,Win32,60.08532116
,,,,,,p,0.7383,0,37,37,37,1,37,images/pixabay_dog_000541.jpg,images/pixabay_dog_000820.jpg,Yun-Jen Tsai,001,2021-08-03_20h38.31.475,Dog face experiment_750-999,2021.1.4,Win32,60.08532116
,,,,,,q,0.8877,0,38,38,38,1,38,images/pixabay_dog_000542.jpg,images/pixabay_dog_000821.jpg,Yun-Jen Tsai,001,2021-08-03_20h38.31.475,Dog face experiment_750-999,2021.1.4,Win32,60.08532116
,,,,,,q,1.3693,0,39,39,39,1,39,images/pixabay_dog_000543.jpg,images/pixabay_dog_000822.jpg,Yun-Jen Tsai,001,2021-08-03_20h38.31.475,Dog face experiment_750-999,2021.1.4,Win32,60.08532116
,,,,,,p,1.1382,0,40,40,40,1,40,images/pixabay_dog_000544.jpg,images/pixabay_dog_000823.jpg,Yun-Jen Tsai,001,2021-08-03_20h38.31.475,Dog face experiment_750-999,2021.1.4,Win32,60.08532116
,,,,,,q,1.1927,0,41,41,41,1,41,images/pixabay_dog_000545.jpg,images/pixabay_dog_000824.jpg,Yun-Jen Tsai,001,2021-08-03_20h38.31.475,Dog face experiment_750-999,2021.1.4,Win32,60.08532116
,,,,,,p,0.7122,0,42,42,42,1,42,images/pixabay_dog_000546.jpg,images/pixabay_dog_000825.jpg,Yun-Jen Tsai,001,2021-08-03_20h38.31.475,Dog face experiment_750-999,2021.1.4,Win32,60.08532116
,,,,,,q,0.7807,0,43,43,43,1,43,images/pixabay_dog_000547.jpg,images/pixabay_dog_000827.jpg,Yun-Jen Tsai,001,2021-08-03_20h38.31.475,Dog face experiment_750-999,2021.1.4,Win32,60.08532116
,,,,,,q,0.8777,0,44,44,44,1,44,images/pixabay_dog_000548.jpg,images/pixabay_dog_000828.jpg,Yun-Jen Tsai,001,2021-08-03_20h38.31.475,Dog face experiment_750-999,2021.1.4,Win32,60.08532116
,,,,,,q,1.4287,0,45,45,45,1,45,images/pixabay_dog_000549.jpg,images/pixabay_dog_000829.jpg,Yun-Jen Tsai,001,2021-08-03_20h38.31.475,Dog face experiment_750-999,2021.1.4,Win32,60.08532116
,,,,,,p,0.6068,0,46,46,46,1,46,images/pixabay_dog_000551.jpg,images/pixabay_dog_000830.jpg,Yun-Jen Tsai,001,2021-08-03_20h38.31.475,Dog face experiment_750-999,2021.1.4,Win32,60.08532116
,,,,,,p,0.7544,0,47,47,47,1,47,images/pixabay_dog_000552.jpg,images/pixabay_dog_000831.jpg,Yun-Jen Tsai,001,2021-08-03_20h38.31.475,Dog face experiment_750-999,2021.1.4,Win32,60.08532116
,,,,,,q,0.7763,0,48,48,48,1,48,images/pixabay_dog_000553.jpg,images/pixabay_dog_000832.jpg,Yun-Jen Tsai,001,2021-08-03_20h38.31.475,Dog face experiment_750-999,2021.1.4,Win32,60.08532116
,,,,,,q,0.9884,0,49,49,49,1,49,images/pixabay_dog_000554.jpg,images/pixabay_dog_000833.jpg,Yun-Jen Tsai,001,2021-08-03_20h38.31.475,Dog face experiment_750-999,2021.1.4,Win32,60.08532116
,,,,,,p,1.1282,0,50,50,50,1,50,images/pixabay_dog_000555.jpg,images/pixabay_dog_000834.jpg,Yun-Jen Tsai,001,2021-08-03_20h38.31.475,Dog face experiment_750-999,2021.1.4,Win32,60.08532116
,,,,,,q,0.8216,0,51,51,51,1,51,images/pixabay_dog_000556.jpg,images/pixabay_dog_000835.jpg,Yun-Jen Tsai,001,2021-08-03_20h38.31.475,Dog face experiment_750-999,2021.1.4,Win32,60.08532116
,,,,,,q,0.9301,0,52,52,52,1,52,images/pixabay_dog_000557.jpg,images/pixabay_dog_000836.jpg,Yun-Jen Tsai,001,2021-08-03_20h38.31.475,Dog face experiment_750-999,2021.1.4,Win32,60.08532116
,,,,,,p,0.7879,0,53,53,53,1,53,images/pixabay_dog_000558.jpg,images/pixabay_dog_000837.jpg,Yun-Jen Tsai,001,2021-08-03_20h38.31.475,Dog face experiment_750-999,2021.1.4,Win32,60.08532116
,,,,,,q,0.6729,0,54,54,54,1,54,images/pixabay_dog_000559.jpg,images/pixabay_dog_000838.jpg,Yun-Jen Tsai,001,2021-08-03_20h38.31.475,Dog face experiment_750-999,2021.1.4,Win32,60.08532116
,,,,,,p,0.8297,0,55,55,55,1,55,images/pixabay_dog_000560.jpg,images/pixabay_dog_000839.jpg,Yun-Jen Tsai,001,2021-08-03_20h38.31.475,Dog face experiment_750-999,2021.1.4,Win32,60.08532116
,,,,,,q,1.2575,0,56,56,56,1,56,images/pixabay_dog_000561.jpg,images/pixabay_dog_000840.jpg,Yun-Jen Tsai,001,2021-08-03_20h38.31.475,Dog face experiment_750-999,2021.1.4,Win32,60.08532116
,,,,,,p,1.1573,0,57,57,57,1,57,images/pixabay_dog_000562.jpg,images/pixabay_dog_000842.jpg,Yun-Jen Tsai,001,2021-08-03_20h38.31.475,Dog face experiment_750-999,2021.1.4,Win32,60.08532116
,,,,,,q,1.0232,0,58,58,58,1,58,images/pixabay_dog_000563.jpg,images/pixabay_dog_000843.jpg,Yun-Jen Tsai,001,2021-08-03_20h38.31.475,Dog face experiment_750-999,2021.1.4,Win32,60.08532116
,,,,,,p,0.7215,0,59,59,59,1,59,images/pixabay_dog_000565.jpg,images/pixabay_dog_000844.jpg,Yun-Jen Tsai,001,2021-08-03_20h38.31.475,Dog face experiment_750-999,2021.1.4,Win32,60.08532116
,,,,,,q,0.8763,0,60,60,60,1,60,images/pixabay_dog_000566.jpg,images/pixabay_dog_000846.jpg,Yun-Jen Tsai,001,2021-08-03_20h38.31.475,Dog face experiment_750-999,2021.1.4,Win32,60.08532116
,,,,,,p,0.8799,0,61,61,61,1,61,images/pixabay_dog_000567.jpg,images/pixabay_dog_000847.jpg,Yun-Jen Tsai,001,2021-08-03_20h38.31.475,Dog face experiment_750-999,2021.1.4,Win32,60.08532116
,,,,,,q,1.4795,0,62,62,62,1,62,images/pixabay_dog_000568.jpg,images/pixabay_dog_000849.jpg,Yun-Jen Tsai,001,2021-08-03_20h38.31.475,Dog face experiment_750-999,2021.1.4,Win32,60.08532116
,,,,,,p,1.1927,0,63,63,63,1,63,images/pixabay_dog_000570.jpg,images/pixabay_dog_000850.jpg,Yun-Jen Tsai,001,2021-08-03_20h38.31.475,Dog face experiment_750-999,2021.1.4,Win32,60.08532116
,,,,,,p,1.537,0,64,64,64,1,64,images/pixabay_dog_000571.jpg,images/pixabay_dog_000851.jpg,Yun-Jen Tsai,001,2021-08-03_20h38.31.475,Dog face experiment_750-999,2021.1.4,Win32,60.08532116
,,,,,,q,0.7047,0,65,65,65,1,65,images/pixabay_dog_000572.jpg,images/pixabay_dog_000852.jpg,Yun-Jen Tsai,001,2021-08-03_20h38.31.475,Dog face experiment_750-999,2021.1.4,Win32,60.08532116
,,,,,,q,0.9044,0,66,66,66,1,66,images/pixabay_dog_000573.jpg,images/pixabay_dog_000853.jpg,Yun-Jen Tsai,001,2021-08-03_20h38.31.475,Dog face experiment_750-999,2021.1.4,Win32,60.08532116
,,,,,,p,1.2762,0,67,67,67,1,67,images/pixabay_dog_000574.jpg,images/pixabay_dog_000854.jpg,Yun-Jen Tsai,001,2021-08-03_20h38.31.475,Dog face experiment_750-999,2021.1.4,Win32,60.08532116
,,,,,,q,1.6875,0,68,68,68,1,68,images/pixabay_dog_000575.jpg,images/pixabay_dog_000855.jpg,Yun-Jen Tsai,001,2021-08-03_20h38.31.475,Dog face experiment_750-999,2021.1.4,Win32,60.08532116
,,,,,,p,0.9278,0,69,69,69,1,69,images/pixabay_dog_000576.jpg,images/pixabay_dog_000856.jpg,Yun-Jen Tsai,001,2021-08-03_20h38.31.475,Dog face experiment_750-999,2021.1.4,Win32,60.08532116
,,,,,,q,0.8612,0,70,70,70,1,70,images/pixabay_dog_000577.jpg,images/pixabay_dog_000857.jpg,Yun-Jen Tsai,001,2021-08-03_20h38.31.475,Dog face experiment_750-999,2021.1.4,Win32,60.08532116
,,,,,,q,0.9378,0,71,71,71,1,71,images/pixabay_dog_000578.jpg,images/pixabay_dog_000858.jpg,Yun-Jen Tsai,001,2021-08-03_20h38.31.475,Dog face experiment_750-999,2021.1.4,Win32,60.08532116
,,,,,,q,0.9545,0,72,72,72,1,72,images/pixabay_dog_000579.jpg,images/pixabay_dog_000859.jpg,Yun-Jen Tsai,001,2021-08-03_20h38.31.475,Dog face experiment_750-999,2021.1.4,Win32,60.08532116
,,,,,,q,0.944,0,73,73,73,1,73,images/pixabay_dog_000580.jpg,images/pixabay_dog_000860.jpg,Yun-Jen Tsai,001,2021-08-03_20h38.31.475,Dog face experiment_750-999,2021.1.4,Win32,60.08532116
,,,,,,q,0.8058,0,74,74,74,1,74,images/pixabay_dog_000581.jpg,images/pixabay_dog_000861.jpg,Yun-Jen Tsai,001,2021-08-03_20h38.31.475,Dog face experiment_750-999,2021.1.4,Win32,60.08532116
,,,,,,p,0.5879,0,75,75,75,1,75,images/pixabay_dog_000583.jpg,images/pixabay_dog_000862.jpg,Yun-Jen Tsai,001,2021-08-03_20h38.31.475,Dog face experiment_750-999,2021.1.4,Win32,60.08532116
,,,,,,q,1.1625,0,76,76,76,1,76,images/pixabay_dog_000584.jpg,images/pixabay_dog_000863.jpg,Yun-Jen Tsai,001,2021-08-03_20h38.31.475,Dog face experiment_750-999,2021.1.4,Win32,60.08532116
,,,,,,q,1.1393,0,77,77,77,1,77,images/pixabay_dog_000585.jpg,images/pixabay_dog_000864.jpg,Yun-Jen Tsai,001,2021-08-03_20h38.31.475,Dog face experiment_750-999,2021.1.4,Win32,60.08532116
,,,,,,q,0.7881,0,78,78,78,1,78,images/pixabay_dog_000586.jpg,images/pixabay_dog_000865.jpg,Yun-Jen Tsai,001,2021-08-03_20h38.31.475,Dog face experiment_750-999,2021.1.4,Win32,60.08532116
,,,,,,p,0.7196,0,79,79,79,1,79,images/pixabay_dog_000587.jpg,images/pixabay_dog_000866.jpg,Yun-Jen Tsai,001,2021-08-03_20h38.31.475,Dog face experiment_750-999,2021.1.4,Win32,60.08532116
,,,,,,q,1.6541,0,80,80,80,1,80,images/pixabay_dog_000588.jpg,images/pixabay_dog_000867.jpg,Yun-Jen Tsai,001,2021-08-03_20h38.31.475,Dog face experiment_750-999,2021.1.4,Win32,60.08532116
,,,,,,p,2.1225,0,81,81,81,1,81,images/pixabay_dog_000589.jpg,images/pixabay_dog_000868.jpg,Yun-Jen Tsai,001,2021-08-03_20h38.31.475,Dog face experiment_750-999,2021.1.4,Win32,60.08532116
,,,,,,q,2.0416,0,82,82,82,1,82,images/pixabay_dog_000590.jpg,images/pixabay_dog_000869.jpg,Yun-Jen Tsai,001,2021-08-03_20h38.31.475,Dog face experiment_750-999,2021.1.4,Win32,60.08532116
,,,,,,p,1.1544,0,83,83,83,1,83,images/pixabay_dog_000591.jpg,images/pixabay_dog_000870.jpg,Yun-Jen Tsai,001,2021-08-03_20h38.31.475,Dog face experiment_750-999,2021.1.4,Win32,60.08532116
,,,,,,p,0.8685,0,84,84,84,1,84,images/pixabay_dog_000592.jpg,images/pixabay_dog_000871.jpg,Yun-Jen Tsai,001,2021-08-03_20h38.31.475,Dog face experiment_750-999,2021.1.4,Win32,60.08532116
,,,,,,q,2.7553,0,85,85,85,1,85,images/pixabay_dog_000593.jpg,images/pixabay_dog_000872.jpg,Yun-Jen Tsai,001,2021-08-03_20h38.31.475,Dog face experiment_750-999,2021.1.4,Win32,60.08532116
,,,,,,q,0.8274,0,86,86,86,1,86,images/pixabay_dog_000594.jpg,images/pixabay_dog_000873.jpg,Yun-Jen Tsai,001,2021-08-03_20h38.31.475,Dog face experiment_750-999,2021.1.4,Win32,60.08532116
,,,,,,p,0.8066,0,87,87,87,1,87,images/pixabay_dog_000595.jpg,images/pixabay_dog_000874.jpg,Yun-Jen Tsai,001,2021-08-03_20h38.31.475,Dog face experiment_750-999,2021.1.4,Win32,60.08532116
,,,,,,q,1.6041,0,88,88,88,1,88,images/pixabay_dog_000596.jpg,images/pixabay_dog_000876.jpg,Yun-Jen Tsai,001,2021-08-03_20h38.31.475,Dog face experiment_750-999,2021.1.4,Win32,60.08532116
,,,,,,p,3.2535,0,89,89,89,1,89,images/pixabay_dog_000597.jpg,images/pixabay_dog_000877.jpg,Yun-Jen Tsai,001,2021-08-03_20h38.31.475,Dog face experiment_750-999,2021.1.4,Win32,60.08532116
,,,,,,q,0.9289,0,90,90,90,1,90,images/pixabay_dog_000598.jpg,images/pixabay_dog_000878.jpg,Yun-Jen Tsai,001,2021-08-03_20h38.31.475,Dog face experiment_750-999,2021.1.4,Win32,60.08532116
,,,,,,p,1.6207,0,91,91,91,1,91,images/pixabay_dog_000601.jpg,images/pixabay_dog_000879.jpg,Yun-Jen Tsai,001,2021-08-03_20h38.31.475,Dog face experiment_750-999,2021.1.4,Win32,60.08532116
,,,,,,q,1.0869,0,92,92,92,1,92,images/pixabay_dog_000602.jpg,images/pixabay_dog_000880.jpg,Yun-Jen Tsai,001,2021-08-03_20h38.31.475,Dog face experiment_750-999,2021.1.4,Win32,60.08532116
,,,,,,q,2.9554,0,93,93,93,1,93,images/pixabay_dog_000603.jpg,images/pixabay_dog_000881.jpg,Yun-Jen Tsai,001,2021-08-03_20h38.31.475,Dog face experiment_750-999,2021.1.4,Win32,60.08532116
,,,,,,p,0.7454,0,94,94,94,1,94,images/pixabay_dog_000604.jpg,images/pixabay_dog_000882.jpg,Yun-Jen Tsai,001,2021-08-03_20h38.31.475,Dog face experiment_750-999,2021.1.4,Win32,60.08532116
,,,,,,p,2.1875,0,95,95,95,1,95,images/pixabay_dog_000605.jpg,images/pixabay_dog_000883.jpg,Yun-Jen Tsai,001,2021-08-03_20h38.31.475,Dog face experiment_750-999,2021.1.4,Win32,60.08532116
,,,,,,q,1.1035,0,96,96,96,1,96,images/pixabay_dog_000606.jpg,images/pixabay_dog_000884.jpg,Yun-Jen Tsai,001,2021-08-03_20h38.31.475,Dog face experiment_750-999,2021.1.4,Win32,60.08532116
,,,,,,q,0.9375,0,97,97,97,1,97,images/pixabay_dog_000608.jpg,images/pixabay_dog_000885.jpg,Yun-Jen Tsai,001,2021-08-03_20h38.31.475,Dog face experiment_750-999,2021.1.4,Win32,60.08532116
,,,,,,p,0.8038,0,98,98,98,1,98,images/pixabay_dog_000609.jpg,images/pixabay_dog_000886.jpg,Yun-Jen Tsai,001,2021-08-03_20h38.31.475,Dog face experiment_750-999,2021.1.4,Win32,60.08532116
,,,,,,p,0.8057,0,99,99,99,1,99,images/pixabay_dog_000610.jpg,images/pixabay_dog_000887.jpg,Yun-Jen Tsai,001,2021-08-03_20h38.31.475,Dog face experiment_750-999,2021.1.4,Win32,60.08532116
,,,,,,p,1.6571,0,100,100,100,1,100,images/pixabay_dog_000612.jpg,images/pixabay_dog_000888.jpg,Yun-Jen Tsai,001,2021-08-03_20h38.31.475,Dog face experiment_750-999,2021.1.4,Win32,60.08532116
,,,,,,p,0.8381,0,101,101,101,1,101,images/pixabay_dog_000613.jpg,images/pixabay_dog_000889.jpg,Yun-Jen Tsai,001,2021-08-03_20h38.31.475,Dog face experiment_750-999,2021.1.4,Win32,60.08532116
,,,,,,q,1.5384,0,102,102,102,1,102,images/pixabay_dog_000614.jpg,images/pixabay_dog_000891.jpg,Yun-Jen Tsai,001,2021-08-03_20h38.31.475,Dog face experiment_750-999,2021.1.4,Win32,60.08532116
,,,,,,p,1.7929,0,103,103,103,1,103,images/pixabay_dog_000615.jpg,images/pixabay_dog_000892.jpg,Yun-Jen Tsai,001,2021-08-03_20h38.31.475,Dog face experiment_750-999,2021.1.4,Win32,60.08532116
,,,,,,q,1.4544,0,104,104,104,1,104,images/pixabay_dog_000616.jpg,images/pixabay_dog_000893.jpg,Yun-Jen Tsai,001,2021-08-03_20h38.31.475,Dog face experiment_750-999,2021.1.4,Win32,60.08532116
,,,,,,q,1.0043,0,105,105,105,1,105,images/pixabay_dog_000619.jpg,images/pixabay_dog_000894.jpg,Yun-Jen Tsai,001,2021-08-03_20h38.31.475,Dog face experiment_750-999,2021.1.4,Win32,60.08532116
,,,,,,q,0.7717,0,106,106,106,1,106,images/pixabay_dog_000620.jpg,images/pixabay_dog_000895.jpg,Yun-Jen Tsai,001,2021-08-03_20h38.31.475,Dog face experiment_750-999,2021.1.4,Win32,60.08532116
,,,,,,q,1.2927,0,107,107,107,1,107,images/pixabay_dog_000621.jpg,images/pixabay_dog_000896.jpg,Yun-Jen Tsai,001,2021-08-03_20h38.31.475,Dog face experiment_750-999,2021.1.4,Win32,60.08532116
,,,,,,p,1.1217,0,108,108,108,1,108,images/pixabay_dog_000622.jpg,images/pixabay_dog_000897.jpg,Yun-Jen Tsai,001,2021-08-03_20h38.31.475,Dog face experiment_750-999,2021.1.4,Win32,60.08532116
,,,,,,q,1.2213,0,109,109,109,1,109,images/pixabay_dog_000623.jpg,images/pixabay_dog_000898.jpg,Yun-Jen Tsai,001,2021-08-03_20h38.31.475,Dog face experiment_750-999,2021.1.4,Win32,60.08532116
,,,,,,p,0.988,0,110,110,110,1,110,images/pixabay_dog_000624.jpg,images/pixabay_dog_000899.jpg,Yun-Jen Tsai,001,2021-08-03_20h38.31.475,Dog face experiment_750-999,2021.1.4,Win32,60.08532116
,,,,,,p,1.1725,0,111,111,111,1,111,images/pixabay_dog_000625.jpg,images/pixabay_dog_000900.jpg,Yun-Jen Tsai,001,2021-08-03_20h38.31.475,Dog face experiment_750-999,2021.1.4,Win32,60.08532116
,,,,,,q,0.9259,0,112,112,112,1,112,images/pixabay_dog_000626.jpg,images/pixabay_dog_000901.jpg,Yun-Jen Tsai,001,2021-08-03_20h38.31.475,Dog face experiment_750-999,2021.1.4,Win32,60.08532116
,,,,,,p,0.9531,0,113,113,113,1,113,images/pixabay_dog_000627.jpg,images/pixabay_dog_000902.jpg,Yun-Jen Tsai,001,2021-08-03_20h38.31.475,Dog face experiment_750-999,2021.1.4,Win32,60.08532116
,,,,,,q,0.957,0,114,114,114,1,114,images/pixabay_dog_000628.jpg,images/pixabay_dog_000903.jpg,Yun-Jen Tsai,001,2021-08-03_20h38.31.475,Dog face experiment_750-999,2021.1.4,Win32,60.08532116
,,,,,,p,1.1221,0,115,115,115,1,115,images/pixabay_dog_000629.jpg,images/pixabay_dog_000904.jpg,Yun-Jen Tsai,001,2021-08-03_20h38.31.475,Dog face experiment_750-999,2021.1.4,Win32,60.08532116
,,,,,,q,0.9401,0,116,116,116,1,116,images/pixabay_dog_000630.jpg,images/pixabay_dog_000905.jpg,Yun-Jen Tsai,001,2021-08-03_20h38.31.475,Dog face experiment_750-999,2021.1.4,Win32,60.08532116
,,,,,,q,0.707,0,117,117,117,1,117,images/pixabay_dog_000631.jpg,images/pixabay_dog_000906.jpg,Yun-Jen Tsai,001,2021-08-03_20h38.31.475,Dog face experiment_750-999,2021.1.4,Win32,60.08532116
,,,,,,q,1.8091,0,118,118,118,1,118,images/pixabay_dog_000632.jpg,images/pixabay_dog_000907.jpg,Yun-Jen Tsai,001,2021-08-03_20h38.31.475,Dog face experiment_750-999,2021.1.4,Win32,60.08532116
,,,,,,p,0.938,0,119,119,119,1,119,images/pixabay_dog_000633.jpg,images/pixabay_dog_000908.jpg,Yun-Jen Tsai,001,2021-08-03_20h38.31.475,Dog face experiment_750-999,2021.1.4,Win32,60.08532116
,,,,,,q,0.8036,0,120,120,120,1,120,images/pixabay_dog_000634.jpg,images/pixabay_dog_000909.jpg,Yun-Jen Tsai,001,2021-08-03_20h38.31.475,Dog face experiment_750-999,2021.1.4,Win32,60.08532116
,,,,,,p,0.7572,0,121,121,121,1,121,images/pixabay_dog_000635.jpg,images/pixabay_dog_000911.jpg,Yun-Jen Tsai,001,2021-08-03_20h38.31.475,Dog face experiment_750-999,2021.1.4,Win32,60.08532116
,,,,,,q,1.1731,0,122,122,122,1,122,images/pixabay_dog_000636.jpg,images/pixabay_dog_000912.jpg,Yun-Jen Tsai,001,2021-08-03_20h38.31.475,Dog face experiment_750-999,2021.1.4,Win32,60.08532116
,,,,,,p,2.4875,0,123,123,123,1,123,images/pixabay_dog_000637.jpg,images/pixabay_dog_000913.jpg,Yun-Jen Tsai,001,2021-08-03_20h38.31.475,Dog face experiment_750-999,2021.1.4,Win32,60.08532116
,,,,,,q,1.1378,0,124,124,124,1,124,images/pixabay_dog_000638.jpg,images/pixabay_dog_000914.jpg,Yun-Jen Tsai,001,2021-08-03_20h38.31.475,Dog face experiment_750-999,2021.1.4,Win32,60.08532116
,,,,,,p,0.9214,0,125,125,125,1,125,images/pixabay_dog_000639.jpg,images/pixabay_dog_000915.jpg,Yun-Jen Tsai,001,2021-08-03_20h38.31.475,Dog face experiment_750-999,2021.1.4,Win32,60.08532116
,,,,,,p,1.8713,0,126,126,126,1,126,images/pixabay_dog_000641.jpg,images/pixabay_dog_000916.jpg,Yun-Jen Tsai,001,2021-08-03_20h38.31.475,Dog face experiment_750-999,2021.1.4,Win32,60.08532116
,,,,,,p,0.8597,0,127,127,127,1,127,images/pixabay_dog_000642.jpg,images/pixabay_dog_000918.jpg,Yun-Jen Tsai,001,2021-08-03_20h38.31.475,Dog face experiment_750-999,2021.1.4,Win32,60.08532116
,,,,,,p,0.8457,0,128,128,128,1,128,images/pixabay_dog_000643.jpg,images/pixabay_dog_000919.jpg,Yun-Jen Tsai,001,2021-08-03_20h38.31.475,Dog face experiment_750-999,2021.1.4,Win32,60.08532116
,,,,,,q,1.0438,0,129,129,129,1,129,images/pixabay_dog_000644.jpg,images/pixabay_dog_000920.jpg,Yun-Jen Tsai,001,2021-08-03_20h38.31.475,Dog face experiment_750-999,2021.1.4,Win32,60.08532116
,,,,,,q,0.9054,0,130,130,130,1,130,images/pixabay_dog_000645.jpg,images/pixabay_dog_000921.jpg,Yun-Jen Tsai,001,2021-08-03_20h38.31.475,Dog face experiment_750-999,2021.1.4,Win32,60.08532116
,,,,,,p,0.7626,0,131,131,131,1,131,images/pixabay_dog_000648.jpg,images/pixabay_dog_000922.jpg,Yun-Jen Tsai,001,2021-08-03_20h38.31.475,Dog face experiment_750-999,2021.1.4,Win32,60.08532116
,,,,,,q,1.0397,0,132,132,132,1,132,images/pixabay_dog_000649.jpg,images/pixabay_dog_000923.jpg,Yun-Jen Tsai,001,2021-08-03_20h38.31.475,Dog face experiment_750-999,2021.1.4,Win32,60.08532116
,,,,,,q,1.0278,0,133,133,133,1,133,images/pixabay_dog_000650.jpg,images/pixabay_dog_000924.jpg,Yun-Jen Tsai,001,2021-08-03_20h38.31.475,Dog face experiment_750-999,2021.1.4,Win32,60.08532116
,,,,,,q,1.1133,0,134,134,134,1,134,images/pixabay_dog_000651.jpg,images/pixabay_dog_000925.jpg,Yun-Jen Tsai,001,2021-08-03_20h38.31.475,Dog face experiment_750-999,2021.1.4,Win32,60.08532116
,,,,,,q,1.1544,0,135,135,135,1,135,images/pixabay_dog_000652.jpg,images/pixabay_dog_000926.jpg,Yun-Jen Tsai,001,2021-08-03_20h38.31.475,Dog face experiment_750-999,2021.1.4,Win32,60.08532116
,,,,,,p,0.7424,0,136,136,136,1,136,images/pixabay_dog_000653.jpg,images/pixabay_dog_000927.jpg,Yun-Jen Tsai,001,2021-08-03_20h38.31.475,Dog face experiment_750-999,2021.1.4,Win32,60.08532116
,,,,,,q,0.8105,0,137,137,137,1,137,images/pixabay_dog_000654.jpg,images/pixabay_dog_000928.jpg,Yun-Jen Tsai,001,2021-08-03_20h38.31.475,Dog face experiment_750-999,2021.1.4,Win32,60.08532116
,,,,,,q,1.1377,0,138,138,138,1,138,images/pixabay_dog_000655.jpg,images/pixabay_dog_000929.jpg,Yun-Jen Tsai,001,2021-08-03_20h38.31.475,Dog face experiment_750-999,2021.1.4,Win32,60.08532116
,,,,,,q,0.8144,0,139,139,139,1,139,images/pixabay_dog_000656.jpg,images/pixabay_dog_000930.jpg,Yun-Jen Tsai,001,2021-08-03_20h38.31.475,Dog face experiment_750-999,2021.1.4,Win32,60.08532116
,,,,,,q,1.0043,0,140,140,140,1,140,images/pixabay_dog_000657.jpg,images/pixabay_dog_000931.jpg,Yun-Jen Tsai,001,2021-08-03_20h38.31.475,Dog face experiment_750-999,2021.1.4,Win32,60.08532116
,,,,,,q,0.9042,0,141,141,141,1,141,images/pixabay_dog_000658.jpg,images/pixabay_dog_000932.jpg,Yun-Jen Tsai,001,2021-08-03_20h38.31.475,Dog face experiment_750-999,2021.1.4,Win32,60.08532116
,,,,,,q,1.3109,0,142,142,142,1,142,images/pixabay_dog_000659.jpg,images/pixabay_dog_000933.jpg,Yun-Jen Tsai,001,2021-08-03_20h38.31.475,Dog face experiment_750-999,2021.1.4,Win32,60.08532116
,,,,,,p,1.4547,0,143,143,143,1,143,images/pixabay_dog_000660.jpg,images/pixabay_dog_000934.jpg,Yun-Jen Tsai,001,2021-08-03_20h38.31.475,Dog face experiment_750-999,2021.1.4,Win32,60.08532116
,,,,,,q,2.2108,0,144,144,144,1,144,images/pixabay_dog_000661.jpg,images/pixabay_dog_000936.jpg,Yun-Jen Tsai,001,2021-08-03_20h38.31.475,Dog face experiment_750-999,2021.1.4,Win32,60.08532116
,,,,,,p,1.5425,0,145,145,145,1,145,images/pixabay_dog_000662.jpg,images/pixabay_dog_000937.jpg,Yun-Jen Tsai,001,2021-08-03_20h38.31.475,Dog face experiment_750-999,2021.1.4,Win32,60.08532116
,,,,,,q,1.8764,0,146,146,146,1,146,images/pixabay_dog_000663.jpg,images/pixabay_dog_000938.jpg,Yun-Jen Tsai,001,2021-08-03_20h38.31.475,Dog face experiment_750-999,2021.1.4,Win32,60.08532116
,,,,,,q,0.855,0,147,147,147,1,147,images/pixabay_dog_000664.jpg,images/pixabay_dog_000940.jpg,Yun-Jen Tsai,001,2021-08-03_20h38.31.475,Dog face experiment_750-999,2021.1.4,Win32,60.08532116
,,,,,,q,0.7557,0,148,148,148,1,148,images/pixabay_dog_000665.jpg,images/pixabay_dog_000941.jpg,Yun-Jen Tsai,001,2021-08-03_20h38.31.475,Dog face experiment_750-999,2021.1.4,Win32,60.08532116
,,,,,,p,0.6117,0,149,149,149,1,149,images/pixabay_dog_000666.jpg,images/pixabay_dog_000942.jpg,Yun-Jen Tsai,001,2021-08-03_20h38.31.475,Dog face experiment_750-999,2021.1.4,Win32,60.08532116
,,,,,,p,1.1272,0,150,150,150,1,150,images/pixabay_dog_000667.jpg,images/pixabay_dog_000943.jpg,Yun-Jen Tsai,001,2021-08-03_20h38.31.475,Dog face experiment_750-999,2021.1.4,Win32,60.08532116
,,,,,,p,1.2387,0,151,151,151,1,151,images/pixabay_dog_000668.jpg,images/pixabay_dog_000944.jpg,Yun-Jen Tsai,001,2021-08-03_20h38.31.475,Dog face experiment_750-999,2021.1.4,Win32,60.08532116
,,,,,,q,2.3417,0,152,152,152,1,152,images/pixabay_dog_000669.jpg,images/pixabay_dog_000945.jpg,Yun-Jen Tsai,001,2021-08-03_20h38.31.475,Dog face experiment_750-999,2021.1.4,Win32,60.08532116
,,,,,,p,1.4744,0,153,153,153,1,153,images/pixabay_dog_000670.jpg,images/pixabay_dog_000946.jpg,Yun-Jen Tsai,001,2021-08-03_20h38.31.475,Dog face experiment_750-999,2021.1.4,Win32,60.08532116
,,,,,,p,0.9594,0,154,154,154,1,154,images/pixabay_dog_000671.jpg,images/pixabay_dog_000947.jpg,Yun-Jen Tsai,001,2021-08-03_20h38.31.475,Dog face experiment_750-999,2021.1.4,Win32,60.08532116
,,,,,,q,0.7899,0,155,155,155,1,155,images/pixabay_dog_000673.jpg,images/pixabay_dog_000948.jpg,Yun-Jen Tsai,001,2021-08-03_20h38.31.475,Dog face experiment_750-999,2021.1.4,Win32,60.08532116
,,,,,,p,0.7715,0,156,156,156,1,156,images/pixabay_dog_000674.jpg,images/pixabay_dog_000949.jpg,Yun-Jen Tsai,001,2021-08-03_20h38.31.475,Dog face experiment_750-999,2021.1.4,Win32,60.08532116
,,,,,,p,0.8802,0,157,157,157,1,157,images/pixabay_dog_000675.jpg,images/pixabay_dog_000950.jpg,Yun-Jen Tsai,001,2021-08-03_20h38.31.475,Dog face experiment_750-999,2021.1.4,Win32,60.08532116
,,,,,,p,0.7436,0,158,158,158,1,158,images/pixabay_dog_000676.jpg,images/pixabay_dog_000951.jpg,Yun-Jen Tsai,001,2021-08-03_20h38.31.475,Dog face experiment_750-999,2021.1.4,Win32,60.08532116
,,,,,,q,1.0701,0,159,159,159,1,159,images/pixabay_dog_000677.jpg,images/pixabay_dog_000952.jpg,Yun-Jen Tsai,001,2021-08-03_20h38.31.475,Dog face experiment_750-999,2021.1.4,Win32,60.08532116
,,,,,,p,0.861,0,160,160,160,1,160,images/pixabay_dog_000678.jpg,images/pixabay_dog_000953.jpg,Yun-Jen Tsai,001,2021-08-03_20h38.31.475,Dog face experiment_750-999,2021.1.4,Win32,60.08532116
,,,,,,p,0.6216,0,161,161,161,1,161,images/pixabay_dog_000679.jpg,images/pixabay_dog_000954.jpg,Yun-Jen Tsai,001,2021-08-03_20h38.31.475,Dog face experiment_750-999,2021.1.4,Win32,60.08532116
,,,,,,q,0.6431,0,162,162,162,1,162,images/pixabay_dog_000680.jpg,images/pixabay_dog_000955.jpg,Yun-Jen Tsai,001,2021-08-03_20h38.31.475,Dog face experiment_750-999,2021.1.4,Win32,60.08532116
,,,,,,p,0.6713,0,163,163,163,1,163,images/pixabay_dog_000681.jpg,images/pixabay_dog_000957.jpg,Yun-Jen Tsai,001,2021-08-03_20h38.31.475,Dog face experiment_750-999,2021.1.4,Win32,60.08532116
,,,,,,p,0.7546,0,164,164,164,1,164,images/pixabay_dog_000682.jpg,images/pixabay_dog_000958.jpg,Yun-Jen Tsai,001,2021-08-03_20h38.31.475,Dog face experiment_750-999,2021.1.4,Win32,60.08532116
,,,,,,q,0.8779,0,165,165,165,1,165,images/pixabay_dog_000683.jpg,images/pixabay_dog_000959.jpg,Yun-Jen Tsai,001,2021-08-03_20h38.31.475,Dog face experiment_750-999,2021.1.4,Win32,60.08532116
,,,,,,p,0.8778,0,166,166,166,1,166,images/pixabay_dog_000684.jpg,images/pixabay_dog_000960.jpg,Yun-Jen Tsai,001,2021-08-03_20h38.31.475,Dog face experiment_750-999,2021.1.4,Win32,60.08532116
,,,,,,p,0.7875,0,167,167,167,1,167,images/pixabay_dog_000685.jpg,images/pixabay_dog_000961.jpg,Yun-Jen Tsai,001,2021-08-03_20h38.31.475,Dog face experiment_750-999,2021.1.4,Win32,60.08532116
,,,,,,q,0.7381,0,168,168,168,1,168,images/pixabay_dog_000686.jpg,images/pixabay_dog_000962.jpg,Yun-Jen Tsai,001,2021-08-03_20h38.31.475,Dog face experiment_750-999,2021.1.4,Win32,60.08532116
,,,,,,p,0.6378,0,169,169,169,1,169,images/pixabay_dog_000687.jpg,images/pixabay_dog_000963.jpg,Yun-Jen Tsai,001,2021-08-03_20h38.31.475,Dog face experiment_750-999,2021.1.4,Win32,60.08532116
,,,,,,q,0.7254,0,170,170,170,1,170,images/pixabay_dog_000688.jpg,images/pixabay_dog_000964.jpg,Yun-Jen Tsai,001,2021-08-03_20h38.31.475,Dog face experiment_750-999,2021.1.4,Win32,60.08532116
,,,,,,q,0.9143,0,171,171,171,1,171,images/pixabay_dog_000689.jpg,images/pixabay_dog_000965.jpg,Yun-Jen Tsai,001,2021-08-03_20h38.31.475,Dog face experiment_750-999,2021.1.4,Win32,60.08532116
,,,,,,q,0.7891,0,172,172,172,1,172,images/pixabay_dog_000690.jpg,images/pixabay_dog_000966.jpg,Yun-Jen Tsai,001,2021-08-03_20h38.31.475,Dog face experiment_750-999,2021.1.4,Win32,60.08532116
,,,,,,p,0.9961,0,173,173,173,1,173,images/pixabay_dog_000692.jpg,images/pixabay_dog_000967.jpg,Yun-Jen Tsai,001,2021-08-03_20h38.31.475,Dog face experiment_750-999,2021.1.4,Win32,60.08532116
,,,,,,q,0.8544,0,174,174,174,1,174,images/pixabay_dog_000693.jpg,images/pixabay_dog_000968.jpg,Yun-Jen Tsai,001,2021-08-03_20h38.31.475,Dog face experiment_750-999,2021.1.4,Win32,60.08532116
,,,,,,q,1.0044,0,175,175,175,1,175,images/pixabay_dog_000694.jpg,images/pixabay_dog_000969.jpg,Yun-Jen Tsai,001,2021-08-03_20h38.31.475,Dog face experiment_750-999,2021.1.4,Win32,60.08532116
,,,,,,q,1.3627,0,176,176,176,1,176,images/pixabay_dog_000695.jpg,images/pixabay_dog_000970.jpg,Yun-Jen Tsai,001,2021-08-03_20h38.31.475,Dog face experiment_750-999,2021.1.4,Win32,60.08532116
,,,,,,p,0.9878,0,177,177,177,1,177,images/pixabay_dog_000696.jpg,images/pixabay_dog_000972.jpg,Yun-Jen Tsai,001,2021-08-03_20h38.31.475,Dog face experiment_750-999,2021.1.4,Win32,60.08532116
,,,,,,q,0.7583,0,178,178,178,1,178,images/pixabay_dog_000697.jpg,images/pixabay_dog_000973.jpg,Yun-Jen Tsai,001,2021-08-03_20h38.31.475,Dog face experiment_750-999,2021.1.4,Win32,60.08532116
,,,,,,p,0.9895,0,179,179,179,1,179,images/pixabay_dog_000698.jpg,images/pixabay_dog_000974.jpg,Yun-Jen Tsai,001,2021-08-03_20h38.31.475,Dog face experiment_750-999,2021.1.4,Win32,60.08532116
,,,,,,q,0.6906,0,180,180,180,1,180,images/pixabay_dog_000699.jpg,images/pixabay_dog_000975.jpg,Yun-Jen Tsai,001,2021-08-03_20h38.31.475,Dog face experiment_750-999,2021.1.4,Win32,60.08532116
,,,,,,p,0.7575,0,181,181,181,1,181,images/pixabay_dog_000700.jpg,images/pixabay_dog_000976.jpg,Yun-Jen Tsai,001,2021-08-03_20h38.31.475,Dog face experiment_750-999,2021.1.4,Win32,60.08532116
,,,,,,q,0.6883,0,182,182,182,1,182,images/pixabay_dog_000701.jpg,images/pixabay_dog_000977.jpg,Yun-Jen Tsai,001,2021-08-03_20h38.31.475,Dog face experiment_750-999,2021.1.4,Win32,60.08532116
,,,,,,p,1.2425,0,183,183,183,1,183,images/pixabay_dog_000702.jpg,images/pixabay_dog_000978.jpg,Yun-Jen Tsai,001,2021-08-03_20h38.31.475,Dog face experiment_750-999,2021.1.4,Win32,60.08532116
,,,,,,q,0.7078,0,184,184,184,1,184,images/pixabay_dog_000703.jpg,images/pixabay_dog_000979.jpg,Yun-Jen Tsai,001,2021-08-03_20h38.31.475,Dog face experiment_750-999,2021.1.4,Win32,60.08532116
,,,,,,p,0.8219,0,185,185,185,1,185,images/pixabay_dog_000704.jpg,images/pixabay_dog_000980.jpg,Yun-Jen Tsai,001,2021-08-03_20h38.31.475,Dog face experiment_750-999,2021.1.4,Win32,60.08532116
,,,,,,q,0.7711,0,186,186,186,1,186,images/pixabay_dog_000705.jpg,images/pixabay_dog_000981.jpg,Yun-Jen Tsai,001,2021-08-03_20h38.31.475,Dog face experiment_750-999,2021.1.4,Win32,60.08532116
,,,,,,q,1.2415,0,187,187,187,1,187,images/pixabay_dog_000706.jpg,images/pixabay_dog_000983.jpg,Yun-Jen Tsai,001,2021-08-03_20h38.31.475,Dog face experiment_750-999,2021.1.4,Win32,60.08532116
,,,,,,p,0.707,0,188,188,188,1,188,images/pixabay_dog_000707.jpg,images/pixabay_dog_000984.jpg,Yun-Jen Tsai,001,2021-08-03_20h38.31.475,Dog face experiment_750-999,2021.1.4,Win32,60.08532116
,,,,,,p,0.9523,0,189,189,189,1,189,images/pixabay_dog_000708.jpg,images/pixabay_dog_000985.jpg,Yun-Jen Tsai,001,2021-08-03_20h38.31.475,Dog face experiment_750-999,2021.1.4,Win32,60.08532116
,,,,,,p,0.9284,0,190,190,190,1,190,images/pixabay_dog_000709.jpg,images/pixabay_dog_000986.jpg,Yun-Jen Tsai,001,2021-08-03_20h38.31.475,Dog face experiment_750-999,2021.1.4,Win32,60.08532116
,,,,,,p,0.839,0,191,191,191,1,191,images/pixabay_dog_000710.jpg,images/pixabay_dog_000987.jpg,Yun-Jen Tsai,001,2021-08-03_20h38.31.475,Dog face experiment_750-999,2021.1.4,Win32,60.08532116
,,,,,,q,1.3452,0,192,192,192,1,192,images/pixabay_dog_000711.jpg,images/pixabay_dog_000988.jpg,Yun-Jen Tsai,001,2021-08-03_20h38.31.475,Dog face experiment_750-999,2021.1.4,Win32,60.08532116
,,,,,,p,1.4395,0,193,193,193,1,193,images/pixabay_dog_000712.jpg,images/pixabay_dog_000989.jpg,Yun-Jen Tsai,001,2021-08-03_20h38.31.475,Dog face experiment_750-999,2021.1.4,Win32,60.08532116
,,,,,,q,1.0069,0,194,194,194,1,194,images/pixabay_dog_000714.jpg,images/pixabay_dog_000990.jpg,Yun-Jen Tsai,001,2021-08-03_20h38.31.475,Dog face experiment_750-999,2021.1.4,Win32,60.08532116
,,,,,,p,0.7811,0,195,195,195,1,195,images/pixabay_dog_000716.jpg,images/pixabay_dog_000991.jpg,Yun-Jen Tsai,001,2021-08-03_20h38.31.475,Dog face experiment_750-999,2021.1.4,Win32,60.08532116
,,,,,,q,0.7252,0,196,196,196,1,196,images/pixabay_dog_000717.jpg,images/pixabay_dog_000992.jpg,Yun-Jen Tsai,001,2021-08-03_20h38.31.475,Dog face experiment_750-999,2021.1.4,Win32,60.08532116
,,,,,,p,0.7785,0,197,197,197,1,197,images/pixabay_dog_000718.jpg,images/pixabay_dog_000993.jpg,Yun-Jen Tsai,001,2021-08-03_20h38.31.475,Dog face experiment_750-999,2021.1.4,Win32,60.08532116
,,,,,,q,1.7545,0,198,198,198,1,198,images/pixabay_dog_000719.jpg,images/pixabay_dog_000994.jpg,Yun-Jen Tsai,001,2021-08-03_20h38.31.475,Dog face experiment_750-999,2021.1.4,Win32,60.08532116
,,,,,,q,2.4045,0,199,199,199,1,199,images/pixabay_dog_000720.jpg,images/pixabay_dog_000995.jpg,Yun-Jen Tsai,001,2021-08-03_20h38.31.475,Dog face experiment_750-999,2021.1.4,Win32,60.08532116
,,,,,,q,1.0276,0,200,200,200,1,200,images/pixabay_dog_000721.jpg,images/pixabay_dog_000996.jpg,Yun-Jen Tsai,001,2021-08-03_20h38.31.475,Dog face experiment_750-999,2021.1.4,Win32,60.08532116
,,,,,,q,1.624,0,201,201,201,1,201,images/pixabay_dog_000722.jpg,images/pixabay_dog_000997.jpg,Yun-Jen Tsai,001,2021-08-03_20h38.31.475,Dog face experiment_750-999,2021.1.4,Win32,60.08532116
,,,,,,p,1.5713,0,202,202,202,1,202,images/pixabay_dog_000725.jpg,images/pixabay_dog_000998.jpg,Yun-Jen Tsai,001,2021-08-03_20h38.31.475,Dog face experiment_750-999,2021.1.4,Win32,60.08532116
,,,,,,q,1.1049,0,203,203,203,1,203,images/pixabay_dog_000726.jpg,images/pixabay_dog_000999.jpg,Yun-Jen Tsai,001,2021-08-03_20h38.31.475,Dog face experiment_750-999,2021.1.4,Win32,60.08532116
,,,,,,q,1.0044,0,204,204,204,1,204,images/pixabay_dog_000727.jpg,images/pixabay_dog_001000.jpg,Yun-Jen Tsai,001,2021-08-03_20h38.31.475,Dog face experiment_750-999,2021.1.4,Win32,60.08532116
,,,,,,p,0.99,0,205,205,205,1,205,images/pixabay_dog_000728.jpg,images/pixabay_dog_001001.jpg,Yun-Jen Tsai,001,2021-08-03_20h38.31.475,Dog face experiment_750-999,2021.1.4,Win32,60.08532116
,,,,,,p,0.8215,0,206,206,206,1,206,images/pixabay_dog_000729.jpg,images/pixabay_dog_001002.jpg,Yun-Jen Tsai,001,2021-08-03_20h38.31.475,Dog face experiment_750-999,2021.1.4,Win32,60.08532116
,,,,,,q,0.7713,0,207,207,207,1,207,images/pixabay_dog_000730.jpg,images/pixabay_dog_001003.jpg,Yun-Jen Tsai,001,2021-08-03_20h38.31.475,Dog face experiment_750-999,2021.1.4,Win32,60.08532116
,,,,,,q,1.0045,0,208,208,208,1,208,images/pixabay_dog_000731.jpg,images/pixabay_dog_001004.jpg,Yun-Jen Tsai,001,2021-08-03_20h38.31.475,Dog face experiment_750-999,2021.1.4,Win32,60.08532116
,,,,,,p,0.841,0,209,209,209,1,209,images/pixabay_dog_000732.jpg,images/pixabay_dog_001005.jpg,Yun-Jen Tsai,001,2021-08-03_20h38.31.475,Dog face experiment_750-999,2021.1.4,Win32,60.08532116
,,,,,,p,2.6411,0,210,210,210,1,210,images/pixabay_dog_000733.jpg,images/pixabay_dog_001006.jpg,Yun-Jen Tsai,001,2021-08-03_20h38.31.475,Dog face experiment_750-999,2021.1.4,Win32,60.08532116
,,,,,,p,0.8874,0,211,211,211,1,211,images/pixabay_dog_000734.jpg,images/pixabay_dog_001007.jpg,Yun-Jen Tsai,001,2021-08-03_20h38.31.475,Dog face experiment_750-999,2021.1.4,Win32,60.08532116
,,,,,,p,0.8882,0,212,212,212,1,212,images/pixabay_dog_000735.jpg,images/pixabay_dog_001008.jpg,Yun-Jen Tsai,001,2021-08-03_20h38.31.475,Dog face experiment_750-999,2021.1.4,Win32,60.08532116
,,,,,,p,0.6768,0,213,213,213,1,213,images/pixabay_dog_000736.jpg,images/pixabay_dog_001009.jpg,Yun-Jen Tsai,001,2021-08-03_20h38.31.475,Dog face experiment_750-999,2021.1.4,Win32,60.08532116
,,,,,,q,0.8712,0,214,214,214,1,214,images/pixabay_dog_000739.jpg,images/pixabay_dog_001010.jpg,Yun-Jen Tsai,001,2021-08-03_20h38.31.475,Dog face experiment_750-999,2021.1.4,Win32,60.08532116
,,,,,,p,0.6382,0,215,215,215,1,215,images/pixabay_dog_000740.jpg,images/pixabay_dog_001011.jpg,Yun-Jen Tsai,001,2021-08-03_20h38.31.475,Dog face experiment_750-999,2021.1.4,Win32,60.08532116
,,,,,,p,3.5546,0,216,216,216,1,216,images/pixabay_dog_000741.jpg,images/pixabay_dog_001012.jpg,Yun-Jen Tsai,001,2021-08-03_20h38.31.475,Dog face experiment_750-999,2021.1.4,Win32,60.08532116
,,,,,,p,2.712,0,217,217,217,1,217,images/pixabay_dog_000742.jpg,images/pixabay_dog_001013.jpg,Yun-Jen Tsai,001,2021-08-03_20h38.31.475,Dog face experiment_750-999,2021.1.4,Win32,60.08532116
,,,,,,q,1.3381,0,218,218,218,1,218,images/pixabay_dog_000743.jpg,images/pixabay_dog_001015.jpg,Yun-Jen Tsai,001,2021-08-03_20h38.31.475,Dog face experiment_750-999,2021.1.4,Win32,60.08532116
,,,,,,p,2.1874,0,219,219,219,1,219,images/pixabay_dog_000744.jpg,images/pixabay_dog_001016.jpg,Yun-Jen Tsai,001,2021-08-03_20h38.31.475,Dog face experiment_750-999,2021.1.4,Win32,60.08532116
,,,,,,q,3.0712,0,220,220,220,1,220,images/pixabay_dog_000745.jpg,images/pixabay_dog_001017.jpg,Yun-Jen Tsai,001,2021-08-03_20h38.31.475,Dog face experiment_750-999,2021.1.4,Win32,60.08532116
,,,,,,q,1.2201,0,221,221,221,1,221,images/pixabay_dog_000746.jpg,images/pixabay_dog_001018.jpg,Yun-Jen Tsai,001,2021-08-03_20h38.31.475,Dog face experiment_750-999,2021.1.4,Win32,60.08532116
,,,,,,p,1.0213,0,222,222,222,1,222,images/pixabay_dog_000747.jpg,images/pixabay_dog_001019.jpg,Yun-Jen Tsai,001,2021-08-03_20h38.31.475,Dog face experiment_750-999,2021.1.4,Win32,60.08532116
,,,,,,p,0.9045,0,223,223,223,1,223,images/pixabay_dog_000748.jpg,images/pixabay_dog_001020.jpg,Yun-Jen Tsai,001,2021-08-03_20h38.31.475,Dog face experiment_750-999,2021.1.4,Win32,60.08532116
,,,,,,q,0.8136,0,224,224,224,1,224,images/pixabay_dog_000749.jpg,images/pixabay_dog_001021.jpg,Yun-Jen Tsai,001,2021-08-03_20h38.31.475,Dog face experiment_750-999,2021.1.4,Win32,60.08532116
,,,,,,q,1.0237,0,225,225,225,1,225,images/pixabay_dog_000750.jpg,images/pixabay_dog_001022.jpg,Yun-Jen Tsai,001,2021-08-03_20h38.31.475,Dog face experiment_750-999,2021.1.4,Win32,60.08532116
,,,,,,p,1.1879,0,226,226,226,1,226,images/pixabay_dog_000751.jpg,images/pixabay_dog_001023.jpg,Yun-Jen Tsai,001,2021-08-03_20h38.31.475,Dog face experiment_750-999,2021.1.4,Win32,60.08532116
,,,,,,p,0.7561,0,227,227,227,1,227,images/pixabay_dog_000752.jpg,images/pixabay_dog_001024.jpg,Yun-Jen Tsai,001,2021-08-03_20h38.31.475,Dog face experiment_750-999,2021.1.4,Win32,60.08532116
,,,,,,q,1.4578,0,228,228,228,1,228,images/pixabay_dog_000753.jpg,images/pixabay_dog_001026.jpg,Yun-Jen Tsai,001,2021-08-03_20h38.31.475,Dog face experiment_750-999,2021.1.4,Win32,60.08532116
,,,,,,p,0.8045,0,229,229,229,1,229,images/pixabay_dog_000754.jpg,images/pixabay_dog_001027.jpg,Yun-Jen Tsai,001,2021-08-03_20h38.31.475,Dog face experiment_750-999,2021.1.4,Win32,60.08532116
,,,,,,p,1.1048,0,230,230,230,1,230,images/pixabay_dog_000755.jpg,images/pixabay_dog_001028.jpg,Yun-Jen Tsai,001,2021-08-03_20h38.31.475,Dog face experiment_750-999,2021.1.4,Win32,60.08532116
,,,,,,q,0.7724,0,231,231,231,1,231,images/pixabay_dog_000756.jpg,images/pixabay_dog_001029.jpg,Yun-Jen Tsai,001,2021-08-03_20h38.31.475,Dog face experiment_750-999,2021.1.4,Win32,60.08532116
,,,,,,p,0.8921,0,232,232,232,1,232,images/pixabay_dog_000757.jpg,images/pixabay_dog_001030.jpg,Yun-Jen Tsai,001,2021-08-03_20h38.31.475,Dog face experiment_750-999,2021.1.4,Win32,60.08532116
,,,,,,q,0.9945,0,233,233,233,1,233,images/pixabay_dog_000758.jpg,images/pixabay_dog_001032.jpg,Yun-Jen Tsai,001,2021-08-03_20h38.31.475,Dog face experiment_750-999,2021.1.4,Win32,60.08532116
,,,,,,q,0.8379,0,234,234,234,1,234,images/pixabay_dog_000759.jpg,images/pixabay_dog_001033.jpg,Yun-Jen Tsai,001,2021-08-03_20h38.31.475,Dog face experiment_750-999,2021.1.4,Win32,60.08532116
,,,,,,q,0.8548,0,235,235,235,1,235,images/pixabay_dog_000760.jpg,images/pixabay_dog_001034.jpg,Yun-Jen Tsai,001,2021-08-03_20h38.31.475,Dog face experiment_750-999,2021.1.4,Win32,60.08532116
,,,,,,p,0.8597,0,236,236,236,1,236,images/pixabay_dog_000761.jpg,images/pixabay_dog_001035.jpg,Yun-Jen Tsai,001,2021-08-03_20h38.31.475,Dog face experiment_750-999,2021.1.4,Win32,60.08532116
,,,,,,q,0.7712,0,237,237,237,1,237,images/pixabay_dog_000762.jpg,images/pixabay_dog_001036.jpg,Yun-Jen Tsai,001,2021-08-03_20h38.31.475,Dog face experiment_750-999,2021.1.4,Win32,60.08532116
,,,,,,p,1.5042,0,238,238,238,1,238,images/pixabay_dog_000763.jpg,images/pixabay_dog_001037.jpg,Yun-Jen Tsai,001,2021-08-03_20h38.31.475,Dog face experiment_750-999,2021.1.4,Win32,60.08532116
,,,,,,p,0.8546,0,239,239,239,1,239,images/pixabay_dog_000765.jpg,images/pixabay_dog_001039.jpg,Yun-Jen Tsai,001,2021-08-03_20h38.31.475,Dog face experiment_750-999,2021.1.4,Win32,60.08532116
,,,,,,p,1.0967,0,240,240,240,1,240,images/pixabay_dog_000766.jpg,images/pixabay_dog_001040.jpg,Yun-Jen Tsai,001,2021-08-03_20h38.31.475,Dog face experiment_750-999,2021.1.4,Win32,60.08532116
,,,,,,p,0.6384,0,241,241,241,1,241,images/pixabay_dog_000767.jpg,images/pixabay_dog_001041.jpg,Yun-Jen Tsai,001,2021-08-03_20h38.31.475,Dog face experiment_750-999,2021.1.4,Win32,60.08532116
,,,,,,p,1.4112,0,242,242,242,1,242,images/pixabay_dog_000768.jpg,images/pixabay_dog_001042.jpg,Yun-Jen Tsai,001,2021-08-03_20h38.31.475,Dog face experiment_750-999,2021.1.4,Win32,60.08532116
,,,,,,p,0.8579,0,243,243,243,1,243,images/pixabay_dog_000769.jpg,images/pixabay_dog_001044.jpg,Yun-Jen Tsai,001,2021-08-03_20h38.31.475,Dog face experiment_750-999,2021.1.4,Win32,60.08532116
,,,,,,q,0.6548,0,244,244,244,1,244,images/pixabay_dog_000770.jpg,images/pixabay_dog_001045.jpg,Yun-Jen Tsai,001,2021-08-03_20h38.31.475,Dog face experiment_750-999,2021.1.4,Win32,60.08532116
,,,,,,p,0.9917,0,245,245,245,1,245,images/pixabay_dog_000771.jpg,images/pixabay_dog_001046.jpg,Yun-Jen Tsai,001,2021-08-03_20h38.31.475,Dog face experiment_750-999,2021.1.4,Win32,60.08532116
,,,,,,q,0.988,0,246,246,246,1,246,images/pixabay_dog_000772.jpg,images/pixabay_dog_001047.jpg,Yun-Jen Tsai,001,2021-08-03_20h38.31.475,Dog face experiment_750-999,2021.1.4,Win32,60.08532116
,,,,,,q,2.2248,0,247,247,247,1,247,images/pixabay_dog_000773.jpg,images/pixabay_dog_001048.jpg,Yun-Jen Tsai,001,2021-08-03_20h38.31.475,Dog face experiment_750-999,2021.1.4,Win32,60.08532116
,,,,,,q,0.9881,0,248,248,248,1,248,images/pixabay_dog_000774.jpg,images/pixabay_dog_001049.jpg,Yun-Jen Tsai,001,2021-08-03_20h38.31.475,Dog face experiment_750-999,2021.1.4,Win32,60.08532116
,,,,,,q,0.7896,0,249,249,249,1,249,images/pixabay_dog_000775.jpg,images/pixabay_dog_001050.jpg,Yun-Jen Tsai,001,2021-08-03_20h38.31.475,Dog face experiment_750-999,2021.1.4,Win32,60.08532116
