key_resp.keys,key_resp.rt,key_resp_2.keys,key_resp_2.rt,key_resp_3.keys,key_resp_3.rt,key_resp_4.keys,key_resp_4.rt,trials.thisRepN,trials.thisTrialN,trials.thisN,trials.thisIndex,trials.ran,trail_nums,img1,img2,participant,session,date,expName,psychopyVersion,OS,frameRate
space,2.1292,space,1.7569,space,1.2144,p,3.2775,0,0,0,0,1,0,images/flickr_dog_000548.jpg,images/flickr_dog_000839.jpg,Yun-Jen Tsai,001,2021-08-03_20h19.34.805,Dog face experiment_250-499,2021.1.4,Win32,59.12262031
,,,,,,p,0.9577,0,1,1,1,1,1,images/flickr_dog_000549.jpg,images/flickr_dog_000840.jpg,Yun-Jen Tsai,001,2021-08-03_20h19.34.805,Dog face experiment_250-499,2021.1.4,Win32,59.12262031
,,,,,,p,0.9062,0,2,2,2,1,2,images/flickr_dog_000550.jpg,images/flickr_dog_000841.jpg,Yun-Jen Tsai,001,2021-08-03_20h19.34.805,Dog face experiment_250-499,2021.1.4,Win32,59.12262031
,,,,,,q,1.0535,0,3,3,3,1,3,images/flickr_dog_000551.jpg,images/flickr_dog_000842.jpg,Yun-Jen Tsai,001,2021-08-03_20h19.34.805,Dog face experiment_250-499,2021.1.4,Win32,59.12262031
,,,,,,p,0.9126,0,4,4,4,1,4,images/flickr_dog_000552.jpg,images/flickr_dog_000843.jpg,Yun-Jen Tsai,001,2021-08-03_20h19.34.805,Dog face experiment_250-499,2021.1.4,Win32,59.12262031
,,,,,,q,0.9427,0,5,5,5,1,5,images/flickr_dog_000554.jpg,images/flickr_dog_000844.jpg,Yun-Jen Tsai,001,2021-08-03_20h19.34.805,Dog face experiment_250-499,2021.1.4,Win32,59.12262031
,,,,,,q,1.2383,0,6,6,6,1,6,images/flickr_dog_000555.jpg,images/flickr_dog_000845.jpg,Yun-Jen Tsai,001,2021-08-03_20h19.34.805,Dog face experiment_250-499,2021.1.4,Win32,59.12262031
,,,,,,p,0.7769,0,7,7,7,1,7,images/flickr_dog_000556.jpg,images/flickr_dog_000847.jpg,Yun-Jen Tsai,001,2021-08-03_20h19.34.805,Dog face experiment_250-499,2021.1.4,Win32,59.12262031
,,,,,,p,1.2393,0,8,8,8,1,8,images/flickr_dog_000557.jpg,images/flickr_dog_000848.jpg,Yun-Jen Tsai,001,2021-08-03_20h19.34.805,Dog face experiment_250-499,2021.1.4,Win32,59.12262031
,,,,,,q,0.8751,0,9,9,9,1,9,images/flickr_dog_000558.jpg,images/flickr_dog_000850.jpg,Yun-Jen Tsai,001,2021-08-03_20h19.34.805,Dog face experiment_250-499,2021.1.4,Win32,59.12262031
,,,,,,p,1.1445,0,10,10,10,1,10,images/flickr_dog_000559.jpg,images/flickr_dog_000851.jpg,Yun-Jen Tsai,001,2021-08-03_20h19.34.805,Dog face experiment_250-499,2021.1.4,Win32,59.12262031
,,,,,,p,0.8044,0,11,11,11,1,11,images/flickr_dog_000560.jpg,images/flickr_dog_000852.jpg,Yun-Jen Tsai,001,2021-08-03_20h19.34.805,Dog face experiment_250-499,2021.1.4,Win32,59.12262031
,,,,,,p,1.1043,0,12,12,12,1,12,images/flickr_dog_000561.jpg,images/flickr_dog_000853.jpg,Yun-Jen Tsai,001,2021-08-03_20h19.34.805,Dog face experiment_250-499,2021.1.4,Win32,59.12262031
,,,,,,p,1.0794,0,13,13,13,1,13,images/flickr_dog_000562.jpg,images/flickr_dog_000855.jpg,Yun-Jen Tsai,001,2021-08-03_20h19.34.805,Dog face experiment_250-499,2021.1.4,Win32,59.12262031
,,,,,,p,0.7422,0,14,14,14,1,14,images/flickr_dog_000563.jpg,images/flickr_dog_000857.jpg,Yun-Jen Tsai,001,2021-08-03_20h19.34.805,Dog face experiment_250-499,2021.1.4,Win32,59.12262031
,,,,,,q,0.9377,0,15,15,15,1,15,images/flickr_dog_000564.jpg,images/flickr_dog_000858.jpg,Yun-Jen Tsai,001,2021-08-03_20h19.34.805,Dog face experiment_250-499,2021.1.4,Win32,59.12262031
,,,,,,q,0.9128,0,16,16,16,1,16,images/flickr_dog_000566.jpg,images/flickr_dog_000859.jpg,Yun-Jen Tsai,001,2021-08-03_20h19.34.805,Dog face experiment_250-499,2021.1.4,Win32,59.12262031
,,,,,,p,0.7976,0,17,17,17,1,17,images/flickr_dog_000568.jpg,images/flickr_dog_000860.jpg,Yun-Jen Tsai,001,2021-08-03_20h19.34.805,Dog face experiment_250-499,2021.1.4,Win32,59.12262031
,,,,,,p,1.155,0,18,18,18,1,18,images/flickr_dog_000570.jpg,images/flickr_dog_000861.jpg,Yun-Jen Tsai,001,2021-08-03_20h19.34.805,Dog face experiment_250-499,2021.1.4,Win32,59.12262031
,,,,,,p,0.6957,0,19,19,19,1,19,images/flickr_dog_000571.jpg,images/flickr_dog_000862.jpg,Yun-Jen Tsai,001,2021-08-03_20h19.34.805,Dog face experiment_250-499,2021.1.4,Win32,59.12262031
,,,,,,q,0.9064,0,20,20,20,1,20,images/flickr_dog_000573.jpg,images/flickr_dog_000863.jpg,Yun-Jen Tsai,001,2021-08-03_20h19.34.805,Dog face experiment_250-499,2021.1.4,Win32,59.12262031
,,,,,,q,0.7286,0,21,21,21,1,21,images/flickr_dog_000574.jpg,images/flickr_dog_000864.jpg,Yun-Jen Tsai,001,2021-08-03_20h19.34.805,Dog face experiment_250-499,2021.1.4,Win32,59.12262031
,,,,,,p,0.8049,0,22,22,22,1,22,images/flickr_dog_000575.jpg,images/flickr_dog_000865.jpg,Yun-Jen Tsai,001,2021-08-03_20h19.34.805,Dog face experiment_250-499,2021.1.4,Win32,59.12262031
,,,,,,q,0.8725,0,23,23,23,1,23,images/flickr_dog_000577.jpg,images/flickr_dog_000866.jpg,Yun-Jen Tsai,001,2021-08-03_20h19.34.805,Dog face experiment_250-499,2021.1.4,Win32,59.12262031
,,,,,,p,1.2234,0,24,24,24,1,24,images/flickr_dog_000578.jpg,images/flickr_dog_000867.jpg,Yun-Jen Tsai,001,2021-08-03_20h19.34.805,Dog face experiment_250-499,2021.1.4,Win32,59.12262031
,,,,,,q,1.2869,0,25,25,25,1,25,images/flickr_dog_000579.jpg,images/flickr_dog_000868.jpg,Yun-Jen Tsai,001,2021-08-03_20h19.34.805,Dog face experiment_250-499,2021.1.4,Win32,59.12262031
,,,,,,q,1.7058,0,26,26,26,1,26,images/flickr_dog_000581.jpg,images/flickr_dog_000869.jpg,Yun-Jen Tsai,001,2021-08-03_20h19.34.805,Dog face experiment_250-499,2021.1.4,Win32,59.12262031
,,,,,,p,1.5388,0,27,27,27,1,27,images/flickr_dog_000582.jpg,images/flickr_dog_000870.jpg,Yun-Jen Tsai,001,2021-08-03_20h19.34.805,Dog face experiment_250-499,2021.1.4,Win32,59.12262031
,,,,,,q,1.2609,0,28,28,28,1,28,images/flickr_dog_000583.jpg,images/flickr_dog_000871.jpg,Yun-Jen Tsai,001,2021-08-03_20h19.34.805,Dog face experiment_250-499,2021.1.4,Win32,59.12262031
,,,,,,p,1.0046,0,29,29,29,1,29,images/flickr_dog_000584.jpg,images/flickr_dog_000872.jpg,Yun-Jen Tsai,001,2021-08-03_20h19.34.805,Dog face experiment_250-499,2021.1.4,Win32,59.12262031
,,,,,,q,2.4063,0,30,30,30,1,30,images/flickr_dog_000585.jpg,images/flickr_dog_000873.jpg,Yun-Jen Tsai,001,2021-08-03_20h19.34.805,Dog face experiment_250-499,2021.1.4,Win32,59.12262031
,,,,,,p,0.8713,0,31,31,31,1,31,images/flickr_dog_000586.jpg,images/flickr_dog_000874.jpg,Yun-Jen Tsai,001,2021-08-03_20h19.34.805,Dog face experiment_250-499,2021.1.4,Win32,59.12262031
,,,,,,q,0.8881,0,32,32,32,1,32,images/flickr_dog_000587.jpg,images/flickr_dog_000875.jpg,Yun-Jen Tsai,001,2021-08-03_20h19.34.805,Dog face experiment_250-499,2021.1.4,Win32,59.12262031
,,,,,,q,0.994,0,33,33,33,1,33,images/flickr_dog_000588.jpg,images/flickr_dog_000876.jpg,Yun-Jen Tsai,001,2021-08-03_20h19.34.805,Dog face experiment_250-499,2021.1.4,Win32,59.12262031
,,,,,,p,1.4882,0,34,34,34,1,34,images/flickr_dog_000589.jpg,images/flickr_dog_000877.jpg,Yun-Jen Tsai,001,2021-08-03_20h19.34.805,Dog face experiment_250-499,2021.1.4,Win32,59.12262031
,,,,,,q,0.9724,0,35,35,35,1,35,images/flickr_dog_000590.jpg,images/flickr_dog_000878.jpg,Yun-Jen Tsai,001,2021-08-03_20h19.34.805,Dog face experiment_250-499,2021.1.4,Win32,59.12262031
,,,,,,p,1.1543,0,36,36,36,1,36,images/flickr_dog_000591.jpg,images/flickr_dog_000879.jpg,Yun-Jen Tsai,001,2021-08-03_20h19.34.805,Dog face experiment_250-499,2021.1.4,Win32,59.12262031
,,,,,,q,3.3711,0,37,37,37,1,37,images/flickr_dog_000592.jpg,images/flickr_dog_000880.jpg,Yun-Jen Tsai,001,2021-08-03_20h19.34.805,Dog face experiment_250-499,2021.1.4,Win32,59.12262031
,,,,,,q,2.3874,0,38,38,38,1,38,images/flickr_dog_000593.jpg,images/flickr_dog_000881.jpg,Yun-Jen Tsai,001,2021-08-03_20h19.34.805,Dog face experiment_250-499,2021.1.4,Win32,59.12262031
,,,,,,p,0.7436,0,39,39,39,1,39,images/flickr_dog_000594.jpg,images/flickr_dog_000882.jpg,Yun-Jen Tsai,001,2021-08-03_20h19.34.805,Dog face experiment_250-499,2021.1.4,Win32,59.12262031
,,,,,,p,0.977,0,40,40,40,1,40,images/flickr_dog_000595.jpg,images/flickr_dog_000883.jpg,Yun-Jen Tsai,001,2021-08-03_20h19.34.805,Dog face experiment_250-499,2021.1.4,Win32,59.12262031
,,,,,,q,1.0385,0,41,41,41,1,41,images/flickr_dog_000597.jpg,images/flickr_dog_000884.jpg,Yun-Jen Tsai,001,2021-08-03_20h19.34.805,Dog face experiment_250-499,2021.1.4,Win32,59.12262031
,,,,,,p,1.3706,0,42,42,42,1,42,images/flickr_dog_000598.jpg,images/flickr_dog_000885.jpg,Yun-Jen Tsai,001,2021-08-03_20h19.34.805,Dog face experiment_250-499,2021.1.4,Win32,59.12262031
,,,,,,p,0.8552,0,43,43,43,1,43,images/flickr_dog_000599.jpg,images/flickr_dog_000886.jpg,Yun-Jen Tsai,001,2021-08-03_20h19.34.805,Dog face experiment_250-499,2021.1.4,Win32,59.12262031
,,,,,,p,0.8596,0,44,44,44,1,44,images/flickr_dog_000600.jpg,images/flickr_dog_000887.jpg,Yun-Jen Tsai,001,2021-08-03_20h19.34.805,Dog face experiment_250-499,2021.1.4,Win32,59.12262031
,,,,,,p,1.0566,0,45,45,45,1,45,images/flickr_dog_000601.jpg,images/flickr_dog_000888.jpg,Yun-Jen Tsai,001,2021-08-03_20h19.34.805,Dog face experiment_250-499,2021.1.4,Win32,59.12262031
,,,,,,q,1.0596,0,46,46,46,1,46,images/flickr_dog_000602.jpg,images/flickr_dog_000889.jpg,Yun-Jen Tsai,001,2021-08-03_20h19.34.805,Dog face experiment_250-499,2021.1.4,Win32,59.12262031
,,,,,,q,0.7895,0,47,47,47,1,47,images/flickr_dog_000603.jpg,images/flickr_dog_000890.jpg,Yun-Jen Tsai,001,2021-08-03_20h19.34.805,Dog face experiment_250-499,2021.1.4,Win32,59.12262031
,,,,,,p,0.6072,0,48,48,48,1,48,images/flickr_dog_000604.jpg,images/flickr_dog_000891.jpg,Yun-Jen Tsai,001,2021-08-03_20h19.34.805,Dog face experiment_250-499,2021.1.4,Win32,59.12262031
,,,,,,p,1.3037,0,49,49,49,1,49,images/flickr_dog_000605.jpg,images/flickr_dog_000892.jpg,Yun-Jen Tsai,001,2021-08-03_20h19.34.805,Dog face experiment_250-499,2021.1.4,Win32,59.12262031
,,,,,,p,1.3544,0,50,50,50,1,50,images/flickr_dog_000606.jpg,images/flickr_dog_000893.jpg,Yun-Jen Tsai,001,2021-08-03_20h19.34.805,Dog face experiment_250-499,2021.1.4,Win32,59.12262031
,,,,,,p,0.8714,0,51,51,51,1,51,images/flickr_dog_000607.jpg,images/flickr_dog_000894.jpg,Yun-Jen Tsai,001,2021-08-03_20h19.34.805,Dog face experiment_250-499,2021.1.4,Win32,59.12262031
,,,,,,p,0.7545,0,52,52,52,1,52,images/flickr_dog_000608.jpg,images/flickr_dog_000895.jpg,Yun-Jen Tsai,001,2021-08-03_20h19.34.805,Dog face experiment_250-499,2021.1.4,Win32,59.12262031
,,,,,,p,1.121,0,53,53,53,1,53,images/flickr_dog_000609.jpg,images/flickr_dog_000897.jpg,Yun-Jen Tsai,001,2021-08-03_20h19.34.805,Dog face experiment_250-499,2021.1.4,Win32,59.12262031
,,,,,,p,0.6046,0,54,54,54,1,54,images/flickr_dog_000611.jpg,images/flickr_dog_000898.jpg,Yun-Jen Tsai,001,2021-08-03_20h19.34.805,Dog face experiment_250-499,2021.1.4,Win32,59.12262031
,,,,,,p,1.6203,0,55,55,55,1,55,images/flickr_dog_000612.jpg,images/flickr_dog_000899.jpg,Yun-Jen Tsai,001,2021-08-03_20h19.34.805,Dog face experiment_250-499,2021.1.4,Win32,59.12262031
,,,,,,q,1.088,0,56,56,56,1,56,images/flickr_dog_000613.jpg,images/flickr_dog_000900.jpg,Yun-Jen Tsai,001,2021-08-03_20h19.34.805,Dog face experiment_250-499,2021.1.4,Win32,59.12262031
,,,,,,q,2.3912,0,57,57,57,1,57,images/flickr_dog_000614.jpg,images/flickr_dog_000901.jpg,Yun-Jen Tsai,001,2021-08-03_20h19.34.805,Dog face experiment_250-499,2021.1.4,Win32,59.12262031
,,,,,,p,0.7944,0,58,58,58,1,58,images/flickr_dog_000615.jpg,images/flickr_dog_000902.jpg,Yun-Jen Tsai,001,2021-08-03_20h19.34.805,Dog face experiment_250-499,2021.1.4,Win32,59.12262031
,,,,,,q,0.9207,0,59,59,59,1,59,images/flickr_dog_000616.jpg,images/flickr_dog_000903.jpg,Yun-Jen Tsai,001,2021-08-03_20h19.34.805,Dog face experiment_250-499,2021.1.4,Win32,59.12262031
,,,,,,q,1.2879,0,60,60,60,1,60,images/flickr_dog_000617.jpg,images/flickr_dog_000904.jpg,Yun-Jen Tsai,001,2021-08-03_20h19.34.805,Dog face experiment_250-499,2021.1.4,Win32,59.12262031
,,,,,,p,0.8035,0,61,61,61,1,61,images/flickr_dog_000618.jpg,images/flickr_dog_000905.jpg,Yun-Jen Tsai,001,2021-08-03_20h19.34.805,Dog face experiment_250-499,2021.1.4,Win32,59.12262031
,,,,,,p,0.9789,0,62,62,62,1,62,images/flickr_dog_000620.jpg,images/flickr_dog_000906.jpg,Yun-Jen Tsai,001,2021-08-03_20h19.34.805,Dog face experiment_250-499,2021.1.4,Win32,59.12262031
,,,,,,q,1.3381,0,63,63,63,1,63,images/flickr_dog_000621.jpg,images/flickr_dog_000907.jpg,Yun-Jen Tsai,001,2021-08-03_20h19.34.805,Dog face experiment_250-499,2021.1.4,Win32,59.12262031
,,,,,,p,0.8882,0,64,64,64,1,64,images/flickr_dog_000622.jpg,images/flickr_dog_000908.jpg,Yun-Jen Tsai,001,2021-08-03_20h19.34.805,Dog face experiment_250-499,2021.1.4,Win32,59.12262031
,,,,,,p,1.545,0,65,65,65,1,65,images/flickr_dog_000623.jpg,images/flickr_dog_000909.jpg,Yun-Jen Tsai,001,2021-08-03_20h19.34.805,Dog face experiment_250-499,2021.1.4,Win32,59.12262031
,,,,,,q,1.0378,0,66,66,66,1,66,images/flickr_dog_000624.jpg,images/flickr_dog_000910.jpg,Yun-Jen Tsai,001,2021-08-03_20h19.34.805,Dog face experiment_250-499,2021.1.4,Win32,59.12262031
,,,,,,q,1.4103,0,67,67,67,1,67,images/flickr_dog_000627.jpg,images/flickr_dog_000911.jpg,Yun-Jen Tsai,001,2021-08-03_20h19.34.805,Dog face experiment_250-499,2021.1.4,Win32,59.12262031
,,,,,,p,1.6061,0,68,68,68,1,68,images/flickr_dog_000628.jpg,images/flickr_dog_000912.jpg,Yun-Jen Tsai,001,2021-08-03_20h19.34.805,Dog face experiment_250-499,2021.1.4,Win32,59.12262031
,,,,,,q,0.8779,0,69,69,69,1,69,images/flickr_dog_000630.jpg,images/flickr_dog_000913.jpg,Yun-Jen Tsai,001,2021-08-03_20h19.34.805,Dog face experiment_250-499,2021.1.4,Win32,59.12262031
,,,,,,q,1.5396,0,70,70,70,1,70,images/flickr_dog_000631.jpg,images/flickr_dog_000914.jpg,Yun-Jen Tsai,001,2021-08-03_20h19.34.805,Dog face experiment_250-499,2021.1.4,Win32,59.12262031
,,,,,,q,0.8236,0,71,71,71,1,71,images/flickr_dog_000632.jpg,images/flickr_dog_000915.jpg,Yun-Jen Tsai,001,2021-08-03_20h19.34.805,Dog face experiment_250-499,2021.1.4,Win32,59.12262031
,,,,,,q,0.9212,0,72,72,72,1,72,images/flickr_dog_000633.jpg,images/flickr_dog_000916.jpg,Yun-Jen Tsai,001,2021-08-03_20h19.34.805,Dog face experiment_250-499,2021.1.4,Win32,59.12262031
,,,,,,p,2.5726,0,73,73,73,1,73,images/flickr_dog_000634.jpg,images/flickr_dog_000917.jpg,Yun-Jen Tsai,001,2021-08-03_20h19.34.805,Dog face experiment_250-499,2021.1.4,Win32,59.12262031
,,,,,,p,2.3952,0,74,74,74,1,74,images/flickr_dog_000635.jpg,images/flickr_dog_000919.jpg,Yun-Jen Tsai,001,2021-08-03_20h19.34.805,Dog face experiment_250-499,2021.1.4,Win32,59.12262031
,,,,,,q,1.2132,0,75,75,75,1,75,images/flickr_dog_000636.jpg,images/flickr_dog_000920.jpg,Yun-Jen Tsai,001,2021-08-03_20h19.34.805,Dog face experiment_250-499,2021.1.4,Win32,59.12262031
,,,,,,p,1.0873,0,76,76,76,1,76,images/flickr_dog_000637.jpg,images/flickr_dog_000921.jpg,Yun-Jen Tsai,001,2021-08-03_20h19.34.805,Dog face experiment_250-499,2021.1.4,Win32,59.12262031
,,,,,,q,1.4131,0,77,77,77,1,77,images/flickr_dog_000638.jpg,images/flickr_dog_000922.jpg,Yun-Jen Tsai,001,2021-08-03_20h19.34.805,Dog face experiment_250-499,2021.1.4,Win32,59.12262031
,,,,,,p,0.9891,0,78,78,78,1,78,images/flickr_dog_000639.jpg,images/flickr_dog_000923.jpg,Yun-Jen Tsai,001,2021-08-03_20h19.34.805,Dog face experiment_250-499,2021.1.4,Win32,59.12262031
,,,,,,p,1.7891,0,79,79,79,1,79,images/flickr_dog_000641.jpg,images/flickr_dog_000924.jpg,Yun-Jen Tsai,001,2021-08-03_20h19.34.805,Dog face experiment_250-499,2021.1.4,Win32,59.12262031
,,,,,,p,0.8253,0,80,80,80,1,80,images/flickr_dog_000643.jpg,images/flickr_dog_000925.jpg,Yun-Jen Tsai,001,2021-08-03_20h19.34.805,Dog face experiment_250-499,2021.1.4,Win32,59.12262031
,,,,,,q,1.938,0,81,81,81,1,81,images/flickr_dog_000644.jpg,images/flickr_dog_000926.jpg,Yun-Jen Tsai,001,2021-08-03_20h19.34.805,Dog face experiment_250-499,2021.1.4,Win32,59.12262031
,,,,,,q,1.1741,0,82,82,82,1,82,images/flickr_dog_000645.jpg,images/flickr_dog_000927.jpg,Yun-Jen Tsai,001,2021-08-03_20h19.34.805,Dog face experiment_250-499,2021.1.4,Win32,59.12262031
,,,,,,q,1.0561,0,83,83,83,1,83,images/flickr_dog_000646.jpg,images/flickr_dog_000928.jpg,Yun-Jen Tsai,001,2021-08-03_20h19.34.805,Dog face experiment_250-499,2021.1.4,Win32,59.12262031
,,,,,,p,2.5729,0,84,84,84,1,84,images/flickr_dog_000647.jpg,images/flickr_dog_000929.jpg,Yun-Jen Tsai,001,2021-08-03_20h19.34.805,Dog face experiment_250-499,2021.1.4,Win32,59.12262031
,,,,,,q,1.8244,0,85,85,85,1,85,images/flickr_dog_000648.jpg,images/flickr_dog_000930.jpg,Yun-Jen Tsai,001,2021-08-03_20h19.34.805,Dog face experiment_250-499,2021.1.4,Win32,59.12262031
,,,,,,p,1.6061,0,86,86,86,1,86,images/flickr_dog_000649.jpg,images/flickr_dog_000931.jpg,Yun-Jen Tsai,001,2021-08-03_20h19.34.805,Dog face experiment_250-499,2021.1.4,Win32,59.12262031
,,,,,,p,1.8046,0,87,87,87,1,87,images/flickr_dog_000650.jpg,images/flickr_dog_000932.jpg,Yun-Jen Tsai,001,2021-08-03_20h19.34.805,Dog face experiment_250-499,2021.1.4,Win32,59.12262031
,,,,,,p,1.8116,0,88,88,88,1,88,images/flickr_dog_000651.jpg,images/flickr_dog_000933.jpg,Yun-Jen Tsai,001,2021-08-03_20h19.34.805,Dog face experiment_250-499,2021.1.4,Win32,59.12262031
,,,,,,p,1.5235,0,89,89,89,1,89,images/flickr_dog_000652.jpg,images/flickr_dog_000935.jpg,Yun-Jen Tsai,001,2021-08-03_20h19.34.805,Dog face experiment_250-499,2021.1.4,Win32,59.12262031
,,,,,,q,0.9266,0,90,90,90,1,90,images/flickr_dog_000653.jpg,images/flickr_dog_000936.jpg,Yun-Jen Tsai,001,2021-08-03_20h19.34.805,Dog face experiment_250-499,2021.1.4,Win32,59.12262031
,,,,,,p,1.3386,0,91,91,91,1,91,images/flickr_dog_000655.jpg,images/flickr_dog_000937.jpg,Yun-Jen Tsai,001,2021-08-03_20h19.34.805,Dog face experiment_250-499,2021.1.4,Win32,59.12262031
,,,,,,q,1.245,0,92,92,92,1,92,images/flickr_dog_000656.jpg,images/flickr_dog_000938.jpg,Yun-Jen Tsai,001,2021-08-03_20h19.34.805,Dog face experiment_250-499,2021.1.4,Win32,59.12262031
,,,,,,p,1.172,0,93,93,93,1,93,images/flickr_dog_000657.jpg,images/flickr_dog_000939.jpg,Yun-Jen Tsai,001,2021-08-03_20h19.34.805,Dog face experiment_250-499,2021.1.4,Win32,59.12262031
,,,,,,q,1.98,0,94,94,94,1,94,images/flickr_dog_000659.jpg,images/flickr_dog_000940.jpg,Yun-Jen Tsai,001,2021-08-03_20h19.34.805,Dog face experiment_250-499,2021.1.4,Win32,59.12262031
,,,,,,p,1.1741,0,95,95,95,1,95,images/flickr_dog_000660.jpg,images/flickr_dog_000941.jpg,Yun-Jen Tsai,001,2021-08-03_20h19.34.805,Dog face experiment_250-499,2021.1.4,Win32,59.12262031
,,,,,,q,1.5048,0,96,96,96,1,96,images/flickr_dog_000661.jpg,images/flickr_dog_000942.jpg,Yun-Jen Tsai,001,2021-08-03_20h19.34.805,Dog face experiment_250-499,2021.1.4,Win32,59.12262031
,,,,,,p,1.0065,0,97,97,97,1,97,images/flickr_dog_000662.jpg,images/flickr_dog_000943.jpg,Yun-Jen Tsai,001,2021-08-03_20h19.34.805,Dog face experiment_250-499,2021.1.4,Win32,59.12262031
,,,,,,q,1.3051,0,98,98,98,1,98,images/flickr_dog_000663.jpg,images/flickr_dog_000944.jpg,Yun-Jen Tsai,001,2021-08-03_20h19.34.805,Dog face experiment_250-499,2021.1.4,Win32,59.12262031
,,,,,,q,1.2389,0,99,99,99,1,99,images/flickr_dog_000664.jpg,images/flickr_dog_000945.jpg,Yun-Jen Tsai,001,2021-08-03_20h19.34.805,Dog face experiment_250-499,2021.1.4,Win32,59.12262031
,,,,,,p,1.1382,0,100,100,100,1,100,images/flickr_dog_000665.jpg,images/flickr_dog_000947.jpg,Yun-Jen Tsai,001,2021-08-03_20h19.34.805,Dog face experiment_250-499,2021.1.4,Win32,59.12262031
,,,,,,q,1.5052,0,101,101,101,1,101,images/flickr_dog_000666.jpg,images/flickr_dog_000948.jpg,Yun-Jen Tsai,001,2021-08-03_20h19.34.805,Dog face experiment_250-499,2021.1.4,Win32,59.12262031
,,,,,,p,1.2732,0,102,102,102,1,102,images/flickr_dog_000667.jpg,images/flickr_dog_000950.jpg,Yun-Jen Tsai,001,2021-08-03_20h19.34.805,Dog face experiment_250-499,2021.1.4,Win32,59.12262031
,,,,,,q,2.154,0,103,103,103,1,103,images/flickr_dog_000668.jpg,images/flickr_dog_000951.jpg,Yun-Jen Tsai,001,2021-08-03_20h19.34.805,Dog face experiment_250-499,2021.1.4,Win32,59.12262031
,,,,,,p,1.3067,0,104,104,104,1,104,images/flickr_dog_000669.jpg,images/flickr_dog_000952.jpg,Yun-Jen Tsai,001,2021-08-03_20h19.34.805,Dog face experiment_250-499,2021.1.4,Win32,59.12262031
,,,,,,p,1.6282,0,105,105,105,1,105,images/flickr_dog_000670.jpg,images/flickr_dog_000953.jpg,Yun-Jen Tsai,001,2021-08-03_20h19.34.805,Dog face experiment_250-499,2021.1.4,Win32,59.12262031
,,,,,,q,2.0289,0,106,106,106,1,106,images/flickr_dog_000671.jpg,images/flickr_dog_000954.jpg,Yun-Jen Tsai,001,2021-08-03_20h19.34.805,Dog face experiment_250-499,2021.1.4,Win32,59.12262031
,,,,,,p,1.6457,0,107,107,107,1,107,images/flickr_dog_000672.jpg,images/flickr_dog_000955.jpg,Yun-Jen Tsai,001,2021-08-03_20h19.34.805,Dog face experiment_250-499,2021.1.4,Win32,59.12262031
,,,,,,q,1.1388,0,108,108,108,1,108,images/flickr_dog_000674.jpg,images/flickr_dog_000956.jpg,Yun-Jen Tsai,001,2021-08-03_20h19.34.805,Dog face experiment_250-499,2021.1.4,Win32,59.12262031
,,,,,,q,1.6712,0,109,109,109,1,109,images/flickr_dog_000676.jpg,images/flickr_dog_000957.jpg,Yun-Jen Tsai,001,2021-08-03_20h19.34.805,Dog face experiment_250-499,2021.1.4,Win32,59.12262031
,,,,,,q,1.2385,0,110,110,110,1,110,images/flickr_dog_000677.jpg,images/flickr_dog_000958.jpg,Yun-Jen Tsai,001,2021-08-03_20h19.34.805,Dog face experiment_250-499,2021.1.4,Win32,59.12262031
,,,,,,q,1.2774,0,111,111,111,1,111,images/flickr_dog_000678.jpg,images/flickr_dog_000959.jpg,Yun-Jen Tsai,001,2021-08-03_20h19.34.805,Dog face experiment_250-499,2021.1.4,Win32,59.12262031
,,,,,,p,1.2263,0,112,112,112,1,112,images/flickr_dog_000679.jpg,images/flickr_dog_000960.jpg,Yun-Jen Tsai,001,2021-08-03_20h19.34.805,Dog face experiment_250-499,2021.1.4,Win32,59.12262031
,,,,,,p,1.527,0,113,113,113,1,113,images/flickr_dog_000680.jpg,images/flickr_dog_000962.jpg,Yun-Jen Tsai,001,2021-08-03_20h19.34.805,Dog face experiment_250-499,2021.1.4,Win32,59.12262031
,,,,,,p,0.9382,0,114,114,114,1,114,images/flickr_dog_000681.jpg,images/flickr_dog_000963.jpg,Yun-Jen Tsai,001,2021-08-03_20h19.34.805,Dog face experiment_250-499,2021.1.4,Win32,59.12262031
,,,,,,q,0.9376,0,115,115,115,1,115,images/flickr_dog_000682.jpg,images/flickr_dog_000964.jpg,Yun-Jen Tsai,001,2021-08-03_20h19.34.805,Dog face experiment_250-499,2021.1.4,Win32,59.12262031
,,,,,,q,2.1082,0,116,116,116,1,116,images/flickr_dog_000683.jpg,images/flickr_dog_000965.jpg,Yun-Jen Tsai,001,2021-08-03_20h19.34.805,Dog face experiment_250-499,2021.1.4,Win32,59.12262031
,,,,,,p,0.8739,0,117,117,117,1,117,images/flickr_dog_000684.jpg,images/flickr_dog_000966.jpg,Yun-Jen Tsai,001,2021-08-03_20h19.34.805,Dog face experiment_250-499,2021.1.4,Win32,59.12262031
,,,,,,q,1.1129,0,118,118,118,1,118,images/flickr_dog_000685.jpg,images/flickr_dog_000967.jpg,Yun-Jen Tsai,001,2021-08-03_20h19.34.805,Dog face experiment_250-499,2021.1.4,Win32,59.12262031
,,,,,,p,1.5371,0,119,119,119,1,119,images/flickr_dog_000686.jpg,images/flickr_dog_000968.jpg,Yun-Jen Tsai,001,2021-08-03_20h19.34.805,Dog face experiment_250-499,2021.1.4,Win32,59.12262031
,,,,,,q,0.8881,0,120,120,120,1,120,images/flickr_dog_000688.jpg,images/flickr_dog_000969.jpg,Yun-Jen Tsai,001,2021-08-03_20h19.34.805,Dog face experiment_250-499,2021.1.4,Win32,59.12262031
,,,,,,p,2.1046,0,121,121,121,1,121,images/flickr_dog_000689.jpg,images/flickr_dog_000970.jpg,Yun-Jen Tsai,001,2021-08-03_20h19.34.805,Dog face experiment_250-499,2021.1.4,Win32,59.12262031
,,,,,,q,1.7068,0,122,122,122,1,122,images/flickr_dog_000690.jpg,images/flickr_dog_000971.jpg,Yun-Jen Tsai,001,2021-08-03_20h19.34.805,Dog face experiment_250-499,2021.1.4,Win32,59.12262031
,,,,,,p,0.8883,0,123,123,123,1,123,images/flickr_dog_000691.jpg,images/flickr_dog_000973.jpg,Yun-Jen Tsai,001,2021-08-03_20h19.34.805,Dog face experiment_250-499,2021.1.4,Win32,59.12262031
,,,,,,q,1.3613,0,124,124,124,1,124,images/flickr_dog_000692.jpg,images/flickr_dog_000974.jpg,Yun-Jen Tsai,001,2021-08-03_20h19.34.805,Dog face experiment_250-499,2021.1.4,Win32,59.12262031
,,,,,,p,1.5236,0,125,125,125,1,125,images/flickr_dog_000693.jpg,images/flickr_dog_000975.jpg,Yun-Jen Tsai,001,2021-08-03_20h19.34.805,Dog face experiment_250-499,2021.1.4,Win32,59.12262031
,,,,,,q,0.9425,0,126,126,126,1,126,images/flickr_dog_000696.jpg,images/flickr_dog_000976.jpg,Yun-Jen Tsai,001,2021-08-03_20h19.34.805,Dog face experiment_250-499,2021.1.4,Win32,59.12262031
,,,,,,q,0.9545,0,127,127,127,1,127,images/flickr_dog_000697.jpg,images/flickr_dog_000977.jpg,Yun-Jen Tsai,001,2021-08-03_20h19.34.805,Dog face experiment_250-499,2021.1.4,Win32,59.12262031
,,,,,,p,1.1105,0,128,128,128,1,128,images/flickr_dog_000698.jpg,images/flickr_dog_000978.jpg,Yun-Jen Tsai,001,2021-08-03_20h19.34.805,Dog face experiment_250-499,2021.1.4,Win32,59.12262031
,,,,,,p,1.4892,0,129,129,129,1,129,images/flickr_dog_000699.jpg,images/flickr_dog_000979.jpg,Yun-Jen Tsai,001,2021-08-03_20h19.34.805,Dog face experiment_250-499,2021.1.4,Win32,59.12262031
,,,,,,q,1.488,0,130,130,130,1,130,images/flickr_dog_000700.jpg,images/flickr_dog_000980.jpg,Yun-Jen Tsai,001,2021-08-03_20h19.34.805,Dog face experiment_250-499,2021.1.4,Win32,59.12262031
,,,,,,q,1.5307,0,131,131,131,1,131,images/flickr_dog_000701.jpg,images/flickr_dog_000981.jpg,Yun-Jen Tsai,001,2021-08-03_20h19.34.805,Dog face experiment_250-499,2021.1.4,Win32,59.12262031
,,,,,,p,1.6208,0,132,132,132,1,132,images/flickr_dog_000702.jpg,images/flickr_dog_000982.jpg,Yun-Jen Tsai,001,2021-08-03_20h19.34.805,Dog face experiment_250-499,2021.1.4,Win32,59.12262031
,,,,,,p,1.5227,0,133,133,133,1,133,images/flickr_dog_000703.jpg,images/flickr_dog_000983.jpg,Yun-Jen Tsai,001,2021-08-03_20h19.34.805,Dog face experiment_250-499,2021.1.4,Win32,59.12262031
,,,,,,q,0.7709,0,134,134,134,1,134,images/flickr_dog_000704.jpg,images/flickr_dog_000984.jpg,Yun-Jen Tsai,001,2021-08-03_20h19.34.805,Dog face experiment_250-499,2021.1.4,Win32,59.12262031
,,,,,,p,0.7562,0,135,135,135,1,135,images/flickr_dog_000705.jpg,images/flickr_dog_000985.jpg,Yun-Jen Tsai,001,2021-08-03_20h19.34.805,Dog face experiment_250-499,2021.1.4,Win32,59.12262031
,,,,,,p,0.9214,0,136,136,136,1,136,images/flickr_dog_000707.jpg,images/flickr_dog_000986.jpg,Yun-Jen Tsai,001,2021-08-03_20h19.34.805,Dog face experiment_250-499,2021.1.4,Win32,59.12262031
,,,,,,p,1.6547,0,137,137,137,1,137,images/flickr_dog_000708.jpg,images/flickr_dog_000987.jpg,Yun-Jen Tsai,001,2021-08-03_20h19.34.805,Dog face experiment_250-499,2021.1.4,Win32,59.12262031
,,,,,,p,0.9213,0,138,138,138,1,138,images/flickr_dog_000709.jpg,images/flickr_dog_000988.jpg,Yun-Jen Tsai,001,2021-08-03_20h19.34.805,Dog face experiment_250-499,2021.1.4,Win32,59.12262031
,,,,,,q,1.0072,0,139,139,139,1,139,images/flickr_dog_000710.jpg,images/flickr_dog_000989.jpg,Yun-Jen Tsai,001,2021-08-03_20h19.34.805,Dog face experiment_250-499,2021.1.4,Win32,59.12262031
,,,,,,p,0.6883,0,140,140,140,1,140,images/flickr_dog_000711.jpg,images/flickr_dog_000990.jpg,Yun-Jen Tsai,001,2021-08-03_20h19.34.805,Dog face experiment_250-499,2021.1.4,Win32,59.12262031
,,,,,,p,0.8945,0,141,141,141,1,141,images/flickr_dog_000712.jpg,images/flickr_dog_000991.jpg,Yun-Jen Tsai,001,2021-08-03_20h19.34.805,Dog face experiment_250-499,2021.1.4,Win32,59.12262031
,,,,,,q,0.9711,0,142,142,142,1,142,images/flickr_dog_000713.jpg,images/flickr_dog_000992.jpg,Yun-Jen Tsai,001,2021-08-03_20h19.34.805,Dog face experiment_250-499,2021.1.4,Win32,59.12262031
,,,,,,q,2.1237,0,143,143,143,1,143,images/flickr_dog_000714.jpg,images/flickr_dog_000993.jpg,Yun-Jen Tsai,001,2021-08-03_20h19.34.805,Dog face experiment_250-499,2021.1.4,Win32,59.12262031
,,,,,,p,1.5251,0,144,144,144,1,144,images/flickr_dog_000716.jpg,images/flickr_dog_000994.jpg,Yun-Jen Tsai,001,2021-08-03_20h19.34.805,Dog face experiment_250-499,2021.1.4,Win32,59.12262031
,,,,,,p,0.9092,0,145,145,145,1,145,images/flickr_dog_000718.jpg,images/flickr_dog_000995.jpg,Yun-Jen Tsai,001,2021-08-03_20h19.34.805,Dog face experiment_250-499,2021.1.4,Win32,59.12262031
,,,,,,p,1.0438,0,146,146,146,1,146,images/flickr_dog_000719.jpg,images/flickr_dog_000996.jpg,Yun-Jen Tsai,001,2021-08-03_20h19.34.805,Dog face experiment_250-499,2021.1.4,Win32,59.12262031
,,,,,,q,1.7707,0,147,147,147,1,147,images/flickr_dog_000721.jpg,images/flickr_dog_000998.jpg,Yun-Jen Tsai,001,2021-08-03_20h19.34.805,Dog face experiment_250-499,2021.1.4,Win32,59.12262031
,,,,,,p,3.1052,0,148,148,148,1,148,images/flickr_dog_000722.jpg,images/flickr_dog_001000.jpg,Yun-Jen Tsai,001,2021-08-03_20h19.34.805,Dog face experiment_250-499,2021.1.4,Win32,59.12262031
,,,,,,q,2.277,0,149,149,149,1,149,images/flickr_dog_000723.jpg,images/flickr_dog_001001.jpg,Yun-Jen Tsai,001,2021-08-03_20h19.34.805,Dog face experiment_250-499,2021.1.4,Win32,59.12262031
,,,,,,p,0.8133,0,150,150,150,1,150,images/flickr_dog_000724.jpg,images/flickr_dog_001003.jpg,Yun-Jen Tsai,001,2021-08-03_20h19.34.805,Dog face experiment_250-499,2021.1.4,Win32,59.12262031
,,,,,,q,1.5602,0,151,151,151,1,151,images/flickr_dog_000725.jpg,images/flickr_dog_001004.jpg,Yun-Jen Tsai,001,2021-08-03_20h19.34.805,Dog face experiment_250-499,2021.1.4,Win32,59.12262031
,,,,,,q,1.177,0,152,152,152,1,152,images/flickr_dog_000726.jpg,images/flickr_dog_001005.jpg,Yun-Jen Tsai,001,2021-08-03_20h19.34.805,Dog face experiment_250-499,2021.1.4,Win32,59.12262031
,,,,,,p,1.006,0,153,153,153,1,153,images/flickr_dog_000727.jpg,images/flickr_dog_001006.jpg,Yun-Jen Tsai,001,2021-08-03_20h19.34.805,Dog face experiment_250-499,2021.1.4,Win32,59.12262031
,,,,,,p,1.6406,0,154,154,154,1,154,images/flickr_dog_000728.jpg,images/flickr_dog_001008.jpg,Yun-Jen Tsai,001,2021-08-03_20h19.34.805,Dog face experiment_250-499,2021.1.4,Win32,59.12262031
,,,,,,q,1.1384,0,155,155,155,1,155,images/flickr_dog_000729.jpg,images/flickr_dog_001009.jpg,Yun-Jen Tsai,001,2021-08-03_20h19.34.805,Dog face experiment_250-499,2021.1.4,Win32,59.12262031
,,,,,,p,3.5715,0,156,156,156,1,156,images/flickr_dog_000730.jpg,images/flickr_dog_001010.jpg,Yun-Jen Tsai,001,2021-08-03_20h19.34.805,Dog face experiment_250-499,2021.1.4,Win32,59.12262031
,,,,,,q,2.1932,0,157,157,157,1,157,images/flickr_dog_000731.jpg,images/flickr_dog_001011.jpg,Yun-Jen Tsai,001,2021-08-03_20h19.34.805,Dog face experiment_250-499,2021.1.4,Win32,59.12262031
,,,,,,q,1.4589,0,158,158,158,1,158,images/flickr_dog_000732.jpg,images/flickr_dog_001013.jpg,Yun-Jen Tsai,001,2021-08-03_20h19.34.805,Dog face experiment_250-499,2021.1.4,Win32,59.12262031
,,,,,,p,2.0466,0,159,159,159,1,159,images/flickr_dog_000733.jpg,images/flickr_dog_001014.jpg,Yun-Jen Tsai,001,2021-08-03_20h19.34.805,Dog face experiment_250-499,2021.1.4,Win32,59.12262031
,,,,,,q,1.3878,0,160,160,160,1,160,images/flickr_dog_000734.jpg,images/flickr_dog_001015.jpg,Yun-Jen Tsai,001,2021-08-03_20h19.34.805,Dog face experiment_250-499,2021.1.4,Win32,59.12262031
,,,,,,p,0.9731,0,161,161,161,1,161,images/flickr_dog_000735.jpg,images/flickr_dog_001016.jpg,Yun-Jen Tsai,001,2021-08-03_20h19.34.805,Dog face experiment_250-499,2021.1.4,Win32,59.12262031
,,,,,,q,1.4938,0,162,162,162,1,162,images/flickr_dog_000736.jpg,images/flickr_dog_001017.jpg,Yun-Jen Tsai,001,2021-08-03_20h19.34.805,Dog face experiment_250-499,2021.1.4,Win32,59.12262031
,,,,,,p,1.0719,0,163,163,163,1,163,images/flickr_dog_000738.jpg,images/flickr_dog_001018.jpg,Yun-Jen Tsai,001,2021-08-03_20h19.34.805,Dog face experiment_250-499,2021.1.4,Win32,59.12262031
,,,,,,p,1.9583,0,164,164,164,1,164,images/flickr_dog_000739.jpg,images/flickr_dog_001019.jpg,Yun-Jen Tsai,001,2021-08-03_20h19.34.805,Dog face experiment_250-499,2021.1.4,Win32,59.12262031
,,,,,,q,1.1899,0,165,165,165,1,165,images/flickr_dog_000740.jpg,images/flickr_dog_001020.jpg,Yun-Jen Tsai,001,2021-08-03_20h19.34.805,Dog face experiment_250-499,2021.1.4,Win32,59.12262031
,,,,,,p,1.6796,0,166,166,166,1,166,images/flickr_dog_000741.jpg,images/flickr_dog_001022.jpg,Yun-Jen Tsai,001,2021-08-03_20h19.34.805,Dog face experiment_250-499,2021.1.4,Win32,59.12262031
,,,,,,p,1.9628,0,167,167,167,1,167,images/flickr_dog_000742.jpg,images/flickr_dog_001023.jpg,Yun-Jen Tsai,001,2021-08-03_20h19.34.805,Dog face experiment_250-499,2021.1.4,Win32,59.12262031
,,,,,,p,2.622,0,168,168,168,1,168,images/flickr_dog_000743.jpg,images/flickr_dog_001024.jpg,Yun-Jen Tsai,001,2021-08-03_20h19.34.805,Dog face experiment_250-499,2021.1.4,Win32,59.12262031
,,,,,,p,1.2973,0,169,169,169,1,169,images/flickr_dog_000744.jpg,images/flickr_dog_001025.jpg,Yun-Jen Tsai,001,2021-08-03_20h19.34.805,Dog face experiment_250-499,2021.1.4,Win32,59.12262031
,,,,,,p,1.3549,0,170,170,170,1,170,images/flickr_dog_000745.jpg,images/flickr_dog_001026.jpg,Yun-Jen Tsai,001,2021-08-03_20h19.34.805,Dog face experiment_250-499,2021.1.4,Win32,59.12262031
,,,,,,q,0.804,0,171,171,171,1,171,images/flickr_dog_000746.jpg,images/flickr_dog_001027.jpg,Yun-Jen Tsai,001,2021-08-03_20h19.34.805,Dog face experiment_250-499,2021.1.4,Win32,59.12262031
,,,,,,p,1.1729,0,172,172,172,1,172,images/flickr_dog_000747.jpg,images/flickr_dog_001028.jpg,Yun-Jen Tsai,001,2021-08-03_20h19.34.805,Dog face experiment_250-499,2021.1.4,Win32,59.12262031
,,,,,,p,1.0546,0,173,173,173,1,173,images/flickr_dog_000748.jpg,images/flickr_dog_001029.jpg,Yun-Jen Tsai,001,2021-08-03_20h19.34.805,Dog face experiment_250-499,2021.1.4,Win32,59.12262031
,,,,,,p,1.1549,0,174,174,174,1,174,images/flickr_dog_000749.jpg,images/flickr_dog_001030.jpg,Yun-Jen Tsai,001,2021-08-03_20h19.34.805,Dog face experiment_250-499,2021.1.4,Win32,59.12262031
,,,,,,p,2.1548,0,175,175,175,1,175,images/flickr_dog_000750.jpg,images/flickr_dog_001031.jpg,Yun-Jen Tsai,001,2021-08-03_20h19.34.805,Dog face experiment_250-499,2021.1.4,Win32,59.12262031
,,,,,,q,0.9232,0,176,176,176,1,176,images/flickr_dog_000751.jpg,images/flickr_dog_001032.jpg,Yun-Jen Tsai,001,2021-08-03_20h19.34.805,Dog face experiment_250-499,2021.1.4,Win32,59.12262031
,,,,,,q,1.123,0,177,177,177,1,177,images/flickr_dog_000752.jpg,images/flickr_dog_001033.jpg,Yun-Jen Tsai,001,2021-08-03_20h19.34.805,Dog face experiment_250-499,2021.1.4,Win32,59.12262031
,,,,,,q,4.9877,0,178,178,178,1,178,images/flickr_dog_000753.jpg,images/flickr_dog_001034.jpg,Yun-Jen Tsai,001,2021-08-03_20h19.34.805,Dog face experiment_250-499,2021.1.4,Win32,59.12262031
,,,,,,q,1.5571,0,179,179,179,1,179,images/flickr_dog_000754.jpg,images/flickr_dog_001035.jpg,Yun-Jen Tsai,001,2021-08-03_20h19.34.805,Dog face experiment_250-499,2021.1.4,Win32,59.12262031
,,,,,,p,0.8084,0,180,180,180,1,180,images/flickr_dog_000755.jpg,images/flickr_dog_001036.jpg,Yun-Jen Tsai,001,2021-08-03_20h19.34.805,Dog face experiment_250-499,2021.1.4,Win32,59.12262031
,,,,,,p,5.7712,0,181,181,181,1,181,images/flickr_dog_000756.jpg,images/flickr_dog_001037.jpg,Yun-Jen Tsai,001,2021-08-03_20h19.34.805,Dog face experiment_250-499,2021.1.4,Win32,59.12262031
,,,,,,p,1.488,0,182,182,182,1,182,images/flickr_dog_000758.jpg,images/flickr_dog_001039.jpg,Yun-Jen Tsai,001,2021-08-03_20h19.34.805,Dog face experiment_250-499,2021.1.4,Win32,59.12262031
,,,,,,p,5.7126,0,183,183,183,1,183,images/flickr_dog_000759.jpg,images/flickr_dog_001040.jpg,Yun-Jen Tsai,001,2021-08-03_20h19.34.805,Dog face experiment_250-499,2021.1.4,Win32,59.12262031
,,,,,,q,1.345,0,184,184,184,1,184,images/flickr_dog_000760.jpg,images/flickr_dog_001043.jpg,Yun-Jen Tsai,001,2021-08-03_20h19.34.805,Dog face experiment_250-499,2021.1.4,Win32,59.12262031
,,,,,,p,0.8391,0,185,185,185,1,185,images/flickr_dog_000761.jpg,images/flickr_dog_001044.jpg,Yun-Jen Tsai,001,2021-08-03_20h19.34.805,Dog face experiment_250-499,2021.1.4,Win32,59.12262031
,,,,,,q,2.9248,0,186,186,186,1,186,images/flickr_dog_000762.jpg,images/flickr_dog_001045.jpg,Yun-Jen Tsai,001,2021-08-03_20h19.34.805,Dog face experiment_250-499,2021.1.4,Win32,59.12262031
,,,,,,p,1.0048,0,187,187,187,1,187,images/flickr_dog_000763.jpg,images/flickr_dog_001046.jpg,Yun-Jen Tsai,001,2021-08-03_20h19.34.805,Dog face experiment_250-499,2021.1.4,Win32,59.12262031
,,,,,,p,3.2041,0,188,188,188,1,188,images/flickr_dog_000764.jpg,images/flickr_dog_001047.jpg,Yun-Jen Tsai,001,2021-08-03_20h19.34.805,Dog face experiment_250-499,2021.1.4,Win32,59.12262031
,,,,,,p,0.7905,0,189,189,189,1,189,images/flickr_dog_000765.jpg,images/flickr_dog_001048.jpg,Yun-Jen Tsai,001,2021-08-03_20h19.34.805,Dog face experiment_250-499,2021.1.4,Win32,59.12262031
,,,,,,p,4.1042,0,190,190,190,1,190,images/flickr_dog_000766.jpg,images/flickr_dog_001049.jpg,Yun-Jen Tsai,001,2021-08-03_20h19.34.805,Dog face experiment_250-499,2021.1.4,Win32,59.12262031
,,,,,,q,1.4041,0,191,191,191,1,191,images/flickr_dog_000767.jpg,images/flickr_dog_001050.jpg,Yun-Jen Tsai,001,2021-08-03_20h19.34.805,Dog face experiment_250-499,2021.1.4,Win32,59.12262031
,,,,,,q,2.2545,0,192,192,192,1,192,images/flickr_dog_000768.jpg,images/flickr_dog_001051.jpg,Yun-Jen Tsai,001,2021-08-03_20h19.34.805,Dog face experiment_250-499,2021.1.4,Win32,59.12262031
,,,,,,q,2.1627,0,193,193,193,1,193,images/flickr_dog_000769.jpg,images/flickr_dog_001053.jpg,Yun-Jen Tsai,001,2021-08-03_20h19.34.805,Dog face experiment_250-499,2021.1.4,Win32,59.12262031
,,,,,,q,1.2711,0,194,194,194,1,194,images/flickr_dog_000770.jpg,images/flickr_dog_001054.jpg,Yun-Jen Tsai,001,2021-08-03_20h19.34.805,Dog face experiment_250-499,2021.1.4,Win32,59.12262031
,,,,,,q,8.5237,0,195,195,195,1,195,images/flickr_dog_000771.jpg,images/flickr_dog_001056.jpg,Yun-Jen Tsai,001,2021-08-03_20h19.34.805,Dog face experiment_250-499,2021.1.4,Win32,59.12262031
,,,,,,p,1.0542,0,196,196,196,1,196,images/flickr_dog_000773.jpg,images/flickr_dog_001057.jpg,Yun-Jen Tsai,001,2021-08-03_20h19.34.805,Dog face experiment_250-499,2021.1.4,Win32,59.12262031
,,,,,,q,1.4636,0,197,197,197,1,197,images/flickr_dog_000775.jpg,images/flickr_dog_001058.jpg,Yun-Jen Tsai,001,2021-08-03_20h19.34.805,Dog face experiment_250-499,2021.1.4,Win32,59.12262031
,,,,,,p,1.1388,0,198,198,198,1,198,images/flickr_dog_000776.jpg,images/flickr_dog_001059.jpg,Yun-Jen Tsai,001,2021-08-03_20h19.34.805,Dog face experiment_250-499,2021.1.4,Win32,59.12262031
,,,,,,q,1.5222,0,199,199,199,1,199,images/flickr_dog_000777.jpg,images/flickr_dog_001060.jpg,Yun-Jen Tsai,001,2021-08-03_20h19.34.805,Dog face experiment_250-499,2021.1.4,Win32,59.12262031
,,,,,,p,1.4048,0,200,200,200,1,200,images/flickr_dog_000778.jpg,images/flickr_dog_001061.jpg,Yun-Jen Tsai,001,2021-08-03_20h19.34.805,Dog face experiment_250-499,2021.1.4,Win32,59.12262031
,,,,,,p,1.7066,0,201,201,201,1,201,images/flickr_dog_000779.jpg,images/flickr_dog_001062.jpg,Yun-Jen Tsai,001,2021-08-03_20h19.34.805,Dog face experiment_250-499,2021.1.4,Win32,59.12262031
,,,,,,q,0.9719,0,202,202,202,1,202,images/flickr_dog_000780.jpg,images/flickr_dog_001063.jpg,Yun-Jen Tsai,001,2021-08-03_20h19.34.805,Dog face experiment_250-499,2021.1.4,Win32,59.12262031
,,,,,,p,1.7543,0,203,203,203,1,203,images/flickr_dog_000783.jpg,images/flickr_dog_001064.jpg,Yun-Jen Tsai,001,2021-08-03_20h19.34.805,Dog face experiment_250-499,2021.1.4,Win32,59.12262031
,,,,,,p,1.0789,0,204,204,204,1,204,images/flickr_dog_000784.jpg,images/flickr_dog_001065.jpg,Yun-Jen Tsai,001,2021-08-03_20h19.34.805,Dog face experiment_250-499,2021.1.4,Win32,59.12262031
,,,,,,p,1.3456,0,205,205,205,1,205,images/flickr_dog_000786.jpg,images/flickr_dog_001066.jpg,Yun-Jen Tsai,001,2021-08-03_20h19.34.805,Dog face experiment_250-499,2021.1.4,Win32,59.12262031
,,,,,,q,1.9593,0,206,206,206,1,206,images/flickr_dog_000787.jpg,images/flickr_dog_001068.jpg,Yun-Jen Tsai,001,2021-08-03_20h19.34.805,Dog face experiment_250-499,2021.1.4,Win32,59.12262031
,,,,,,q,0.9899,0,207,207,207,1,207,images/flickr_dog_000788.jpg,images/flickr_dog_001069.jpg,Yun-Jen Tsai,001,2021-08-03_20h19.34.805,Dog face experiment_250-499,2021.1.4,Win32,59.12262031
,,,,,,q,1.6209,0,208,208,208,1,208,images/flickr_dog_000789.jpg,images/flickr_dog_001070.jpg,Yun-Jen Tsai,001,2021-08-03_20h19.34.805,Dog face experiment_250-499,2021.1.4,Win32,59.12262031
,,,,,,q,1.8599,0,209,209,209,1,209,images/flickr_dog_000790.jpg,images/flickr_dog_001073.jpg,Yun-Jen Tsai,001,2021-08-03_20h19.34.805,Dog face experiment_250-499,2021.1.4,Win32,59.12262031
,,,,,,q,1.1628,0,210,210,210,1,210,images/flickr_dog_000791.jpg,images/flickr_dog_001074.jpg,Yun-Jen Tsai,001,2021-08-03_20h19.34.805,Dog face experiment_250-499,2021.1.4,Win32,59.12262031
,,,,,,q,1.4378,0,211,211,211,1,211,images/flickr_dog_000792.jpg,images/flickr_dog_001075.jpg,Yun-Jen Tsai,001,2021-08-03_20h19.34.805,Dog face experiment_250-499,2021.1.4,Win32,59.12262031
,,,,,,p,0.9225,0,212,212,212,1,212,images/flickr_dog_000793.jpg,images/flickr_dog_001076.jpg,Yun-Jen Tsai,001,2021-08-03_20h19.34.805,Dog face experiment_250-499,2021.1.4,Win32,59.12262031
,,,,,,p,1.2889,0,213,213,213,1,213,images/flickr_dog_000794.jpg,images/flickr_dog_001077.jpg,Yun-Jen Tsai,001,2021-08-03_20h19.34.805,Dog face experiment_250-499,2021.1.4,Win32,59.12262031
,,,,,,p,0.7549,0,214,214,214,1,214,images/flickr_dog_000796.jpg,images/flickr_dog_001078.jpg,Yun-Jen Tsai,001,2021-08-03_20h19.34.805,Dog face experiment_250-499,2021.1.4,Win32,59.12262031
,,,,,,q,1.338,0,215,215,215,1,215,images/flickr_dog_000797.jpg,images/flickr_dog_001079.jpg,Yun-Jen Tsai,001,2021-08-03_20h19.34.805,Dog face experiment_250-499,2021.1.4,Win32,59.12262031
,,,,,,q,1.2301,0,216,216,216,1,216,images/flickr_dog_000798.jpg,images/flickr_dog_001080.jpg,Yun-Jen Tsai,001,2021-08-03_20h19.34.805,Dog face experiment_250-499,2021.1.4,Win32,59.12262031
,,,,,,q,1.222,0,217,217,217,1,217,images/flickr_dog_000799.jpg,images/flickr_dog_001081.jpg,Yun-Jen Tsai,001,2021-08-03_20h19.34.805,Dog face experiment_250-499,2021.1.4,Win32,59.12262031
,,,,,,q,1.6568,0,218,218,218,1,218,images/flickr_dog_000800.jpg,images/flickr_dog_001082.jpg,Yun-Jen Tsai,001,2021-08-03_20h19.34.805,Dog face experiment_250-499,2021.1.4,Win32,59.12262031
,,,,,,p,0.823,0,219,219,219,1,219,images/flickr_dog_000801.jpg,images/flickr_dog_001083.jpg,Yun-Jen Tsai,001,2021-08-03_20h19.34.805,Dog face experiment_250-499,2021.1.4,Win32,59.12262031
,,,,,,q,1.3569,0,220,220,220,1,220,images/flickr_dog_000802.jpg,images/flickr_dog_001084.jpg,Yun-Jen Tsai,001,2021-08-03_20h19.34.805,Dog face experiment_250-499,2021.1.4,Win32,59.12262031
,,,,,,p,1.003,0,221,221,221,1,221,images/flickr_dog_000803.jpg,images/flickr_dog_001086.jpg,Yun-Jen Tsai,001,2021-08-03_20h19.34.805,Dog face experiment_250-499,2021.1.4,Win32,59.12262031
,,,,,,q,0.7394,0,222,222,222,1,222,images/flickr_dog_000804.jpg,images/flickr_dog_001087.jpg,Yun-Jen Tsai,001,2021-08-03_20h19.34.805,Dog face experiment_250-499,2021.1.4,Win32,59.12262031
,,,,,,q,0.9376,0,223,223,223,1,223,images/flickr_dog_000805.jpg,images/flickr_dog_001088.jpg,Yun-Jen Tsai,001,2021-08-03_20h19.34.805,Dog face experiment_250-499,2021.1.4,Win32,59.12262031
,,,,,,q,1.2444,0,224,224,224,1,224,images/flickr_dog_000807.jpg,images/flickr_dog_001089.jpg,Yun-Jen Tsai,001,2021-08-03_20h19.34.805,Dog face experiment_250-499,2021.1.4,Win32,59.12262031
,,,,,,p,2.5917,0,225,225,225,1,225,images/flickr_dog_000808.jpg,images/flickr_dog_001090.jpg,Yun-Jen Tsai,001,2021-08-03_20h19.34.805,Dog face experiment_250-499,2021.1.4,Win32,59.12262031
,,,,,,p,1.9213,0,226,226,226,1,226,images/flickr_dog_000809.jpg,images/flickr_dog_001091.jpg,Yun-Jen Tsai,001,2021-08-03_20h19.34.805,Dog face experiment_250-499,2021.1.4,Win32,59.12262031
,,,,,,q,2.2062,0,227,227,227,1,227,images/flickr_dog_000810.jpg,images/flickr_dog_001092.jpg,Yun-Jen Tsai,001,2021-08-03_20h19.34.805,Dog face experiment_250-499,2021.1.4,Win32,59.12262031
,,,,,,q,0.9938,0,228,228,228,1,228,images/flickr_dog_000811.jpg,images/flickr_dog_001093.jpg,Yun-Jen Tsai,001,2021-08-03_20h19.34.805,Dog face experiment_250-499,2021.1.4,Win32,59.12262031
,,,,,,q,1.2742,0,229,229,229,1,229,images/flickr_dog_000813.jpg,images/flickr_dog_001095.jpg,Yun-Jen Tsai,001,2021-08-03_20h19.34.805,Dog face experiment_250-499,2021.1.4,Win32,59.12262031
,,,,,,p,1.2099,0,230,230,230,1,230,images/flickr_dog_000815.jpg,images/flickr_dog_001096.jpg,Yun-Jen Tsai,001,2021-08-03_20h19.34.805,Dog face experiment_250-499,2021.1.4,Win32,59.12262031
,,,,,,q,1.161,0,231,231,231,1,231,images/flickr_dog_000816.jpg,images/flickr_dog_001097.jpg,Yun-Jen Tsai,001,2021-08-03_20h19.34.805,Dog face experiment_250-499,2021.1.4,Win32,59.12262031
,,,,,,p,0.9549,0,232,232,232,1,232,images/flickr_dog_000817.jpg,images/flickr_dog_001098.jpg,Yun-Jen Tsai,001,2021-08-03_20h19.34.805,Dog face experiment_250-499,2021.1.4,Win32,59.12262031
,,,,,,q,1.3246,0,233,233,233,1,233,images/flickr_dog_000818.jpg,images/flickr_dog_001099.jpg,Yun-Jen Tsai,001,2021-08-03_20h19.34.805,Dog face experiment_250-499,2021.1.4,Win32,59.12262031
,,,,,,q,2.2623,0,234,234,234,1,234,images/flickr_dog_000819.jpg,images/flickr_dog_001101.jpg,Yun-Jen Tsai,001,2021-08-03_20h19.34.805,Dog face experiment_250-499,2021.1.4,Win32,59.12262031
,,,,,,q,0.8225,0,235,235,235,1,235,images/flickr_dog_000820.jpg,images/flickr_dog_001102.jpg,Yun-Jen Tsai,001,2021-08-03_20h19.34.805,Dog face experiment_250-499,2021.1.4,Win32,59.12262031
,,,,,,p,0.9618,0,236,236,236,1,236,images/flickr_dog_000821.jpg,images/flickr_dog_001103.jpg,Yun-Jen Tsai,001,2021-08-03_20h19.34.805,Dog face experiment_250-499,2021.1.4,Win32,59.12262031
,,,,,,p,1.9038,0,237,237,237,1,237,images/flickr_dog_000822.jpg,images/flickr_dog_001104.jpg,Yun-Jen Tsai,001,2021-08-03_20h19.34.805,Dog face experiment_250-499,2021.1.4,Win32,59.12262031
,,,,,,q,0.8061,0,238,238,238,1,238,images/flickr_dog_000824.jpg,images/flickr_dog_001105.jpg,Yun-Jen Tsai,001,2021-08-03_20h19.34.805,Dog face experiment_250-499,2021.1.4,Win32,59.12262031
,,,,,,p,0.8121,0,239,239,239,1,239,images/flickr_dog_000825.jpg,images/flickr_dog_001106.jpg,Yun-Jen Tsai,001,2021-08-03_20h19.34.805,Dog face experiment_250-499,2021.1.4,Win32,59.12262031
,,,,,,q,1.038,0,240,240,240,1,240,images/flickr_dog_000826.jpg,images/flickr_dog_001107.jpg,Yun-Jen Tsai,001,2021-08-03_20h19.34.805,Dog face experiment_250-499,2021.1.4,Win32,59.12262031
,,,,,,q,1.4715,0,241,241,241,1,241,images/flickr_dog_000828.jpg,images/flickr_dog_001108.jpg,Yun-Jen Tsai,001,2021-08-03_20h19.34.805,Dog face experiment_250-499,2021.1.4,Win32,59.12262031
,,,,,,p,0.9883,0,242,242,242,1,242,images/flickr_dog_000829.jpg,images/flickr_dog_001109.jpg,Yun-Jen Tsai,001,2021-08-03_20h19.34.805,Dog face experiment_250-499,2021.1.4,Win32,59.12262031
,,,,,,q,0.8584,0,243,243,243,1,243,images/flickr_dog_000830.jpg,images/flickr_dog_001110.jpg,Yun-Jen Tsai,001,2021-08-03_20h19.34.805,Dog face experiment_250-499,2021.1.4,Win32,59.12262031
,,,,,,p,0.8052,0,244,244,244,1,244,images/flickr_dog_000831.jpg,images/flickr_dog_001111.jpg,Yun-Jen Tsai,001,2021-08-03_20h19.34.805,Dog face experiment_250-499,2021.1.4,Win32,59.12262031
,,,,,,q,1.0751,0,245,245,245,1,245,images/flickr_dog_000832.jpg,images/flickr_dog_001112.jpg,Yun-Jen Tsai,001,2021-08-03_20h19.34.805,Dog face experiment_250-499,2021.1.4,Win32,59.12262031
,,,,,,q,1.1879,0,246,246,246,1,246,images/flickr_dog_000833.jpg,images/flickr_dog_001113.jpg,Yun-Jen Tsai,001,2021-08-03_20h19.34.805,Dog face experiment_250-499,2021.1.4,Win32,59.12262031
,,,,,,q,1.1889,0,247,247,247,1,247,images/flickr_dog_000834.jpg,images/flickr_dog_001114.jpg,Yun-Jen Tsai,001,2021-08-03_20h19.34.805,Dog face experiment_250-499,2021.1.4,Win32,59.12262031
,,,,,,q,1.5597,0,248,248,248,1,248,images/flickr_dog_000837.jpg,images/flickr_dog_001115.jpg,Yun-Jen Tsai,001,2021-08-03_20h19.34.805,Dog face experiment_250-499,2021.1.4,Win32,59.12262031
,,,,,,q,1.1082,0,249,249,249,1,249,images/flickr_dog_000838.jpg,images/flickr_dog_001116.jpg,Yun-Jen Tsai,001,2021-08-03_20h19.34.805,Dog face experiment_250-499,2021.1.4,Win32,59.12262031
