key_resp.keys,key_resp.rt,key_resp_2.keys,key_resp_2.rt,key_resp_3.keys,key_resp_3.rt,key_resp_4.keys,key_resp_4.rt,trials.thisRepN,trials.thisTrialN,trials.thisN,trials.thisIndex,trials.ran,trail_nums,img1,img2,participant,session,date,expName,psychopyVersion,OS,frameRate
space,1.36,space,0.5683,space,0.6089,p,2.2451,0,0,0,0,1,0,images/pixabay_dog_002268.jpg,images/pixabay_dog_003859.jpg,Chenxi Liao,001,2021-06-21_16h05.02.374,Dog face experiment_fully sample_601-900,2021.1.4,MacIntel,59.99520038
,,,,,,p,1.1612,0,1,1,1,1,1,images/pixabay_dog_000744.jpg,images/pixabay_dog_003859.jpg,Chenxi Liao,001,2021-06-21_16h05.02.374,Dog face experiment_fully sample_601-900,2021.1.4,MacIntel,59.99520038
,,,,,,q,0.9964,0,2,2,2,1,2,images/pixabay_dog_000744.jpg,images/pixabay_dog_002282.jpg,Chenxi Liao,001,2021-06-21_16h05.02.374,Dog face experiment_fully sample_601-900,2021.1.4,MacIntel,59.99520038
,,,,,,p,0.7104,0,3,3,3,1,3,images/pixabay_dog_000853.jpg,images/pixabay_dog_002793.jpg,Chenxi Liao,001,2021-06-21_16h05.02.374,Dog face experiment_fully sample_601-900,2021.1.4,MacIntel,59.99520038
,,,,,,p,1.124,0,4,4,4,1,4,images/pixabay_dog_002793.jpg,images/flickr_dog_000194.jpg,Chenxi Liao,001,2021-06-21_16h05.02.374,Dog face experiment_fully sample_601-900,2021.1.4,MacIntel,59.99520038
,,,,,,p,0.7392,0,5,5,5,1,5,images/pixabay_dog_001712.jpg,images/pixabay_dog_002596.jpg,Chenxi Liao,001,2021-06-21_16h05.02.374,Dog face experiment_fully sample_601-900,2021.1.4,MacIntel,59.99520038
,,,,,,p,0.8466,0,6,6,6,1,6,images/pixabay_dog_002861.jpg,images/pixabay_dog_001465.jpg,Chenxi Liao,001,2021-06-21_16h05.02.374,Dog face experiment_fully sample_601-900,2021.1.4,MacIntel,59.99520038
,,,,,,q,0.0077,0,7,7,7,1,7,images/pixabay_dog_000042.jpg,images/flickr_dog_000266.jpg,Chenxi Liao,001,2021-06-21_16h05.02.374,Dog face experiment_fully sample_601-900,2021.1.4,MacIntel,59.99520038
,,,,,,q,1.0121,0,8,8,8,1,8,images/pixabay_dog_003238.jpg,images/pixabay_dog_001960.jpg,Chenxi Liao,001,2021-06-21_16h05.02.374,Dog face experiment_fully sample_601-900,2021.1.4,MacIntel,59.99520038
,,,,,,p,0.6104,0,9,9,9,1,9,images/pixabay_dog_001255.jpg,images/flickr_dog_000194.jpg,Chenxi Liao,001,2021-06-21_16h05.02.374,Dog face experiment_fully sample_601-900,2021.1.4,MacIntel,59.99520038
,,,,,,q,0.9434,0,10,10,10,1,10,images/pixabay_dog_003971.jpg,images/pixabay_dog_000805.jpg,Chenxi Liao,001,2021-06-21_16h05.02.374,Dog face experiment_fully sample_601-900,2021.1.4,MacIntel,59.99520038
,,,,,,p,0.8352,0,11,11,11,1,11,images/flickr_dog_000019.jpg,images/pixabay_dog_003604.jpg,Chenxi Liao,001,2021-06-21_16h05.02.374,Dog face experiment_fully sample_601-900,2021.1.4,MacIntel,59.99520038
,,,,,,q,1.177,0,12,12,12,1,12,images/flickr_dog_000201.jpg,images/pixabay_dog_002793.jpg,Chenxi Liao,001,2021-06-21_16h05.02.374,Dog face experiment_fully sample_601-900,2021.1.4,MacIntel,59.99520038
,,,,,,p,0.9099,0,13,13,13,1,13,images/pixabay_dog_002861.jpg,images/pixabay_dog_001843.jpg,Chenxi Liao,001,2021-06-21_16h05.02.374,Dog face experiment_fully sample_601-900,2021.1.4,MacIntel,59.99520038
,,,,,,q,0.9315,0,14,14,14,1,14,images/pixabay_dog_003238.jpg,images/flickr_dog_000194.jpg,Chenxi Liao,001,2021-06-21_16h05.02.374,Dog face experiment_fully sample_601-900,2021.1.4,MacIntel,59.99520038
,,,,,,p,0.8794,0,15,15,15,1,15,images/pixabay_dog_003829.jpg,images/flickr_dog_000194.jpg,Chenxi Liao,001,2021-06-21_16h05.02.374,Dog face experiment_fully sample_601-900,2021.1.4,MacIntel,59.99520038
,,,,,,q,0.8461,0,16,16,16,1,16,images/flickr_dog_000566.jpg,images/pixabay_dog_003604.jpg,Chenxi Liao,001,2021-06-21_16h05.02.374,Dog face experiment_fully sample_601-900,2021.1.4,MacIntel,59.99520038
,,,,,,q,0.8768,0,17,17,17,1,17,images/pixabay_dog_003310.jpg,images/pixabay_dog_003859.jpg,Chenxi Liao,001,2021-06-21_16h05.02.374,Dog face experiment_fully sample_601-900,2021.1.4,MacIntel,59.99520038
,,,,,,q,0.7918,0,18,18,18,1,18,images/pixabay_dog_000805.jpg,images/pixabay_dog_003604.jpg,Chenxi Liao,001,2021-06-21_16h05.02.374,Dog face experiment_fully sample_601-900,2021.1.4,MacIntel,59.99520038
,,,,,,q,0.698,0,19,19,19,1,19,images/flickr_dog_000261.jpg,images/pixabay_dog_003604.jpg,Chenxi Liao,001,2021-06-21_16h05.02.374,Dog face experiment_fully sample_601-900,2021.1.4,MacIntel,59.99520038
,,,,,,q,1.0242,0,20,20,20,1,20,images/pixabay_dog_000914.jpg,images/pixabay_dog_000825.jpg,Chenxi Liao,001,2021-06-21_16h05.02.374,Dog face experiment_fully sample_601-900,2021.1.4,MacIntel,59.99520038
,,,,,,p,0.7255,0,21,21,21,1,21,images/flickr_dog_000279.jpg,images/pixabay_dog_003604.jpg,Chenxi Liao,001,2021-06-21_16h05.02.374,Dog face experiment_fully sample_601-900,2021.1.4,MacIntel,59.99520038
,,,,,,p,0.8327,0,22,22,22,1,22,images/pixabay_dog_003238.jpg,images/pixabay_dog_002360.jpg,Chenxi Liao,001,2021-06-21_16h05.02.374,Dog face experiment_fully sample_601-900,2021.1.4,MacIntel,59.99520038
,,,,,,p,0.7784,0,23,23,23,1,23,images/pixabay_dog_003604.jpg,images/pixabay_dog_000853.jpg,Chenxi Liao,001,2021-06-21_16h05.02.374,Dog face experiment_fully sample_601-900,2021.1.4,MacIntel,59.99520038
,,,,,,q,0.8065,0,24,24,24,1,24,images/flickr_dog_001079.jpg,images/pixabay_dog_002649.jpg,Chenxi Liao,001,2021-06-21_16h05.02.374,Dog face experiment_fully sample_601-900,2021.1.4,MacIntel,59.99520038
,,,,,,p,0.892,0,25,25,25,1,25,images/flickr_dog_000566.jpg,images/pixabay_dog_000932.jpg,Chenxi Liao,001,2021-06-21_16h05.02.374,Dog face experiment_fully sample_601-900,2021.1.4,MacIntel,59.99520038
,,,,,,q,1.4352,0,26,26,26,1,26,images/pixabay_dog_000042.jpg,images/pixabay_dog_001255.jpg,Chenxi Liao,001,2021-06-21_16h05.02.374,Dog face experiment_fully sample_601-900,2021.1.4,MacIntel,59.99520038
,,,,,,q,0.6777,0,27,27,27,1,27,images/flickr_dog_000266.jpg,images/pixabay_dog_003829.jpg,Chenxi Liao,001,2021-06-21_16h05.02.374,Dog face experiment_fully sample_601-900,2021.1.4,MacIntel,59.99520038
,,,,,,q,0.842,0,28,28,28,1,28,images/pixabay_dog_003305.jpg,images/flickr_dog_000232.jpg,Chenxi Liao,001,2021-06-21_16h05.02.374,Dog face experiment_fully sample_601-900,2021.1.4,MacIntel,59.99520038
,,,,,,p,0.8098,0,29,29,29,1,29,images/pixabay_dog_003829.jpg,images/pixabay_dog_000825.jpg,Chenxi Liao,001,2021-06-21_16h05.02.374,Dog face experiment_fully sample_601-900,2021.1.4,MacIntel,59.99520038
,,,,,,p,0.7801,0,30,30,30,1,30,images/flickr_dog_000083.jpg,images/flickr_dog_000913.jpg,Chenxi Liao,001,2021-06-21_16h05.02.374,Dog face experiment_fully sample_601-900,2021.1.4,MacIntel,59.99520038
,,,,,,q,0.7789,0,31,31,31,1,31,images/flickr_dog_001079.jpg,images/pixabay_dog_001255.jpg,Chenxi Liao,001,2021-06-21_16h05.02.374,Dog face experiment_fully sample_601-900,2021.1.4,MacIntel,59.99520038
,,,,,,p,0.9605,0,32,32,32,1,32,images/pixabay_dog_003238.jpg,images/pixabay_dog_002744.jpg,Chenxi Liao,001,2021-06-21_16h05.02.374,Dog face experiment_fully sample_601-900,2021.1.4,MacIntel,59.99520038
,,,,,,q,1.5316,0,33,33,33,1,33,images/pixabay_dog_000042.jpg,images/pixabay_dog_000952.jpg,Chenxi Liao,001,2021-06-21_16h05.02.374,Dog face experiment_fully sample_601-900,2021.1.4,MacIntel,59.99520038
,,,,,,p,0.7593,0,34,34,34,1,34,images/pixabay_dog_003238.jpg,images/pixabay_dog_001843.jpg,Chenxi Liao,001,2021-06-21_16h05.02.374,Dog face experiment_fully sample_601-900,2021.1.4,MacIntel,59.99520038
,,,,,,q,1.0624,0,35,35,35,1,35,images/flickr_dog_000232.jpg,images/pixabay_dog_003727.jpg,Chenxi Liao,001,2021-06-21_16h05.02.374,Dog face experiment_fully sample_601-900,2021.1.4,MacIntel,59.99520038
,,,,,,q,0.8421,0,36,36,36,1,36,images/pixabay_dog_000744.jpg,images/flickr_dog_000279.jpg,Chenxi Liao,001,2021-06-21_16h05.02.374,Dog face experiment_fully sample_601-900,2021.1.4,MacIntel,59.99520038
,,,,,,q,0.6643,0,37,37,37,1,37,images/flickr_dog_000019.jpg,images/pixabay_dog_001712.jpg,Chenxi Liao,001,2021-06-21_16h05.02.374,Dog face experiment_fully sample_601-900,2021.1.4,MacIntel,59.99520038
,,,,,,p,0.9346,0,38,38,38,1,38,images/pixabay_dog_003098.jpg,images/flickr_dog_000266.jpg,Chenxi Liao,001,2021-06-21_16h05.02.374,Dog face experiment_fully sample_601-900,2021.1.4,MacIntel,59.99520038
,,,,,,p,0.7824,0,39,39,39,1,39,images/pixabay_dog_001960.jpg,images/pixabay_dog_002989.jpg,Chenxi Liao,001,2021-06-21_16h05.02.374,Dog face experiment_fully sample_601-900,2021.1.4,MacIntel,59.99520038
,,,,,,q,0.8275,0,40,40,40,1,40,images/pixabay_dog_003604.jpg,images/pixabay_dog_003310.jpg,Chenxi Liao,001,2021-06-21_16h05.02.374,Dog face experiment_fully sample_601-900,2021.1.4,MacIntel,59.99520038
,,,,,,q,1.1928,0,41,41,41,1,41,images/pixabay_dog_001150.jpg,images/pixabay_dog_000744.jpg,Chenxi Liao,001,2021-06-21_16h05.02.374,Dog face experiment_fully sample_601-900,2021.1.4,MacIntel,59.99520038
,,,,,,q,1.5788,0,42,42,42,1,42,images/pixabay_dog_000744.jpg,images/pixabay_dog_001524.jpg,Chenxi Liao,001,2021-06-21_16h05.02.374,Dog face experiment_fully sample_601-900,2021.1.4,MacIntel,59.99520038
,,,,,,q,0.8107,0,43,43,43,1,43,images/flickr_dog_000932.jpg,images/pixabay_dog_001960.jpg,Chenxi Liao,001,2021-06-21_16h05.02.374,Dog face experiment_fully sample_601-900,2021.1.4,MacIntel,59.99520038
,,,,,,q,0.8399,0,44,44,44,1,44,images/pixabay_dog_001150.jpg,images/flickr_dog_000232.jpg,Chenxi Liao,001,2021-06-21_16h05.02.374,Dog face experiment_fully sample_601-900,2021.1.4,MacIntel,59.99520038
,,,,,,q,0.7786,0,45,45,45,1,45,images/pixabay_dog_001255.jpg,images/pixabay_dog_001960.jpg,Chenxi Liao,001,2021-06-21_16h05.02.374,Dog face experiment_fully sample_601-900,2021.1.4,MacIntel,59.99520038
,,,,,,p,1.5417,0,46,46,46,1,46,images/pixabay_dog_002649.jpg,images/pixabay_dog_003357.jpg,Chenxi Liao,001,2021-06-21_16h05.02.374,Dog face experiment_fully sample_601-900,2021.1.4,MacIntel,59.99520038
,,,,,,p,0.8584,0,47,47,47,1,47,images/pixabay_dog_002360.jpg,images/pixabay_dog_002989.jpg,Chenxi Liao,001,2021-06-21_16h05.02.374,Dog face experiment_fully sample_601-900,2021.1.4,MacIntel,59.99520038
,,,,,,q,0.9973,0,48,48,48,1,48,images/pixabay_dog_002861.jpg,images/pixabay_dog_003604.jpg,Chenxi Liao,001,2021-06-21_16h05.02.374,Dog face experiment_fully sample_601-900,2021.1.4,MacIntel,59.99520038
,,,,,,q,0.8916,0,49,49,49,1,49,images/pixabay_dog_003305.jpg,images/pixabay_dog_003310.jpg,Chenxi Liao,001,2021-06-21_16h05.02.374,Dog face experiment_fully sample_601-900,2021.1.4,MacIntel,59.99520038
,,,,,,q,1.2307,0,50,50,50,1,50,images/flickr_dog_000083.jpg,images/pixabay_dog_000805.jpg,Chenxi Liao,001,2021-06-21_16h05.02.374,Dog face experiment_fully sample_601-900,2021.1.4,MacIntel,59.99520038
,,,,,,q,1.0856,0,51,51,51,1,51,images/pixabay_dog_002989.jpg,images/flickr_dog_000913.jpg,Chenxi Liao,001,2021-06-21_16h05.02.374,Dog face experiment_fully sample_601-900,2021.1.4,MacIntel,59.99520038
,,,,,,p,0.7435,0,52,52,52,1,52,images/flickr_dog_000194.jpg,images/pixabay_dog_003859.jpg,Chenxi Liao,001,2021-06-21_16h05.02.374,Dog face experiment_fully sample_601-900,2021.1.4,MacIntel,59.99520038
,,,,,,q,0.7282,0,53,53,53,1,53,images/flickr_dog_000261.jpg,images/flickr_dog_000279.jpg,Chenxi Liao,001,2021-06-21_16h05.02.374,Dog face experiment_fully sample_601-900,2021.1.4,MacIntel,59.99520038
,,,,,,p,1.0106,0,54,54,54,1,54,images/flickr_dog_001079.jpg,images/pixabay_dog_003305.jpg,Chenxi Liao,001,2021-06-21_16h05.02.374,Dog face experiment_fully sample_601-900,2021.1.4,MacIntel,59.99520038
,,,,,,p,0.7743,0,55,55,55,1,55,images/pixabay_dog_002268.jpg,images/pixabay_dog_002989.jpg,Chenxi Liao,001,2021-06-21_16h05.02.374,Dog face experiment_fully sample_601-900,2021.1.4,MacIntel,59.99520038
,,,,,,q,0.7999,0,56,56,56,1,56,images/flickr_dog_000266.jpg,images/flickr_dog_001107.jpg,Chenxi Liao,001,2021-06-21_16h05.02.374,Dog face experiment_fully sample_601-900,2021.1.4,MacIntel,59.99520038
,,,,,,p,1.2738,0,57,57,57,1,57,images/pixabay_dog_003971.jpg,images/flickr_dog_000194.jpg,Chenxi Liao,001,2021-06-21_16h05.02.374,Dog face experiment_fully sample_601-900,2021.1.4,MacIntel,59.99520038
,,,,,,q,1.0121,0,58,58,58,1,58,images/pixabay_dog_002744.jpg,images/pixabay_dog_003829.jpg,Chenxi Liao,001,2021-06-21_16h05.02.374,Dog face experiment_fully sample_601-900,2021.1.4,MacIntel,59.99520038
,,,,,,p,0.7236,0,59,59,59,1,59,images/pixabay_dog_000952.jpg,images/pixabay_dog_000825.jpg,Chenxi Liao,001,2021-06-21_16h05.02.374,Dog face experiment_fully sample_601-900,2021.1.4,MacIntel,59.99520038
,,,,,,p,0.8289,0,60,60,60,1,60,images/pixabay_dog_001712.jpg,images/pixabay_dog_000853.jpg,Chenxi Liao,001,2021-06-21_16h05.02.374,Dog face experiment_fully sample_601-900,2021.1.4,MacIntel,59.99520038
,,,,,,q,1.0279,0,61,61,61,1,61,images/pixabay_dog_000744.jpg,images/pixabay_dog_002360.jpg,Chenxi Liao,001,2021-06-21_16h05.02.374,Dog face experiment_fully sample_601-900,2021.1.4,MacIntel,59.99520038
,,,,,,q,1.0944,0,62,62,62,1,62,images/pixabay_dog_001712.jpg,images/pixabay_dog_000952.jpg,Chenxi Liao,001,2021-06-21_16h05.02.374,Dog face experiment_fully sample_601-900,2021.1.4,MacIntel,59.99520038
,,,,,,p,0.7779,0,63,63,63,1,63,images/flickr_dog_001079.jpg,images/pixabay_dog_002596.jpg,Chenxi Liao,001,2021-06-21_16h05.02.374,Dog face experiment_fully sample_601-900,2021.1.4,MacIntel,59.99520038
,,,,,,q,0.9474,0,64,64,64,1,64,images/flickr_dog_000261.jpg,images/flickr_dog_000266.jpg,Chenxi Liao,001,2021-06-21_16h05.02.374,Dog face experiment_fully sample_601-900,2021.1.4,MacIntel,59.99520038
,,,,,,p,0.9584,0,65,65,65,1,65,images/flickr_dog_000201.jpg,images/pixabay_dog_003859.jpg,Chenxi Liao,001,2021-06-21_16h05.02.374,Dog face experiment_fully sample_601-900,2021.1.4,MacIntel,59.99520038
,,,,,,q,0.9958,0,66,66,66,1,66,images/flickr_dog_000566.jpg,images/pixabay_dog_002282.jpg,Chenxi Liao,001,2021-06-21_16h05.02.374,Dog face experiment_fully sample_601-900,2021.1.4,MacIntel,59.99520038
,,,,,,q,1.1463,0,67,67,67,1,67,images/pixabay_dog_003971.jpg,images/flickr_dog_000279.jpg,Chenxi Liao,001,2021-06-21_16h05.02.374,Dog face experiment_fully sample_601-900,2021.1.4,MacIntel,59.99520038
,,,,,,q,0.8941,0,68,68,68,1,68,images/flickr_dog_000279.jpg,images/pixabay_dog_000805.jpg,Chenxi Liao,001,2021-06-21_16h05.02.374,Dog face experiment_fully sample_601-900,2021.1.4,MacIntel,59.99520038
,,,,,,p,1.2117,0,69,69,69,1,69,images/pixabay_dog_000042.jpg,images/flickr_dog_000261.jpg,Chenxi Liao,001,2021-06-21_16h05.02.374,Dog face experiment_fully sample_601-900,2021.1.4,MacIntel,59.99520038
,,,,,,q,0.8868,0,70,70,70,1,70,images/pixabay_dog_000744.jpg,images/flickr_dog_000232.jpg,Chenxi Liao,001,2021-06-21_16h05.02.374,Dog face experiment_fully sample_601-900,2021.1.4,MacIntel,59.99520038
,,,,,,p,0.8019,0,71,71,71,1,71,images/pixabay_dog_002268.jpg,images/flickr_dog_000279.jpg,Chenxi Liao,001,2021-06-21_16h05.02.374,Dog face experiment_fully sample_601-900,2021.1.4,MacIntel,59.99520038
,,,,,,p,0.7821,0,72,72,72,1,72,images/pixabay_dog_001150.jpg,images/pixabay_dog_000825.jpg,Chenxi Liao,001,2021-06-21_16h05.02.374,Dog face experiment_fully sample_601-900,2021.1.4,MacIntel,59.99520038
,,,,,,p,0.8787,0,73,73,73,1,73,images/pixabay_dog_000805.jpg,images/flickr_dog_000266.jpg,Chenxi Liao,001,2021-06-21_16h05.02.374,Dog face experiment_fully sample_601-900,2021.1.4,MacIntel,59.99520038
,,,,,,q,0.9927,0,74,74,74,1,74,images/pixabay_dog_002282.jpg,images/pixabay_dog_000853.jpg,Chenxi Liao,001,2021-06-21_16h05.02.374,Dog face experiment_fully sample_601-900,2021.1.4,MacIntel,59.99520038
,,,,,,p,0.6935,0,75,75,75,1,75,images/pixabay_dog_001465.jpg,images/pixabay_dog_003859.jpg,Chenxi Liao,001,2021-06-21_16h05.02.374,Dog face experiment_fully sample_601-900,2021.1.4,MacIntel,59.99520038
,,,,,,q,0.6603,0,76,76,76,1,76,images/pixabay_dog_003305.jpg,images/flickr_dog_000201.jpg,Chenxi Liao,001,2021-06-21_16h05.02.374,Dog face experiment_fully sample_601-900,2021.1.4,MacIntel,59.99520038
,,,,,,p,0.7138,0,77,77,77,1,77,images/pixabay_dog_001150.jpg,images/flickr_dog_000913.jpg,Chenxi Liao,001,2021-06-21_16h05.02.374,Dog face experiment_fully sample_601-900,2021.1.4,MacIntel,59.99520038
,,,,,,q,1.0924,0,78,78,78,1,78,images/pixabay_dog_003727.jpg,images/pixabay_dog_001960.jpg,Chenxi Liao,001,2021-06-21_16h05.02.374,Dog face experiment_fully sample_601-900,2021.1.4,MacIntel,59.99520038
,,,,,,p,0.9829,0,79,79,79,1,79,images/pixabay_dog_003829.jpg,images/pixabay_dog_002596.jpg,Chenxi Liao,001,2021-06-21_16h05.02.374,Dog face experiment_fully sample_601-900,2021.1.4,MacIntel,59.99520038
,,,,,,p,0.9987,0,80,80,80,1,80,images/flickr_dog_000279.jpg,images/pixabay_dog_001524.jpg,Chenxi Liao,001,2021-06-21_16h05.02.374,Dog face experiment_fully sample_601-900,2021.1.4,MacIntel,59.99520038
,,,,,,p,0.7354,0,81,81,81,1,81,images/flickr_dog_000566.jpg,images/flickr_dog_000861.jpg,Chenxi Liao,001,2021-06-21_16h05.02.374,Dog face experiment_fully sample_601-900,2021.1.4,MacIntel,59.99520038
,,,,,,q,0.9107,0,82,82,82,1,82,images/pixabay_dog_003305.jpg,images/pixabay_dog_000932.jpg,Chenxi Liao,001,2021-06-21_16h05.02.374,Dog face experiment_fully sample_601-900,2021.1.4,MacIntel,59.99520038
,,,,,,p,0.7145,0,83,83,83,1,83,images/flickr_dog_000932.jpg,images/pixabay_dog_000825.jpg,Chenxi Liao,001,2021-06-21_16h05.02.374,Dog face experiment_fully sample_601-900,2021.1.4,MacIntel,59.99520038
,,,,,,q,1.11,0,84,84,84,1,84,images/pixabay_dog_003971.jpg,images/pixabay_dog_002282.jpg,Chenxi Liao,001,2021-06-21_16h05.02.374,Dog face experiment_fully sample_601-900,2021.1.4,MacIntel,59.99520038
,,,,,,p,0.7988,0,85,85,85,1,85,images/pixabay_dog_002268.jpg,images/pixabay_dog_002596.jpg,Chenxi Liao,001,2021-06-21_16h05.02.374,Dog face experiment_fully sample_601-900,2021.1.4,MacIntel,59.99520038
,,,,,,p,0.6775,0,86,86,86,1,86,images/pixabay_dog_001255.jpg,images/pixabay_dog_003859.jpg,Chenxi Liao,001,2021-06-21_16h05.02.374,Dog face experiment_fully sample_601-900,2021.1.4,MacIntel,59.99520038
,,,,,,q,0.6422,0,87,87,87,1,87,images/flickr_dog_000261.jpg,images/pixabay_dog_002596.jpg,Chenxi Liao,001,2021-06-21_16h05.02.374,Dog face experiment_fully sample_601-900,2021.1.4,MacIntel,59.99520038
,,,,,,p,0.7078,0,88,88,88,1,88,images/flickr_dog_000566.jpg,images/pixabay_dog_000914.jpg,Chenxi Liao,001,2021-06-21_16h05.02.374,Dog face experiment_fully sample_601-900,2021.1.4,MacIntel,59.99520038
,,,,,,p,0.8799,0,89,89,89,1,89,images/pixabay_dog_003604.jpg,images/flickr_dog_001107.jpg,Chenxi Liao,001,2021-06-21_16h05.02.374,Dog face experiment_fully sample_601-900,2021.1.4,MacIntel,59.99520038
,,,,,,p,0.9808,0,90,90,90,1,90,images/pixabay_dog_001712.jpg,images/pixabay_dog_003727.jpg,Chenxi Liao,001,2021-06-21_16h05.02.374,Dog face experiment_fully sample_601-900,2021.1.4,MacIntel,59.99520038
,,,,,,p,0.7106,0,91,91,91,1,91,images/pixabay_dog_000914.jpg,images/pixabay_dog_001843.jpg,Chenxi Liao,001,2021-06-21_16h05.02.374,Dog face experiment_fully sample_601-900,2021.1.4,MacIntel,59.99520038
,,,,,,p,0.7276,0,92,92,92,1,92,images/pixabay_dog_000952.jpg,images/pixabay_dog_001524.jpg,Chenxi Liao,001,2021-06-21_16h05.02.374,Dog face experiment_fully sample_601-900,2021.1.4,MacIntel,59.99520038
,,,,,,p,0.9445,0,93,93,93,1,93,images/pixabay_dog_003829.jpg,images/pixabay_dog_002989.jpg,Chenxi Liao,001,2021-06-21_16h05.02.374,Dog face experiment_fully sample_601-900,2021.1.4,MacIntel,59.99520038
,,,,,,p,0.8099,0,94,94,94,1,94,images/flickr_dog_000566.jpg,images/flickr_dog_000232.jpg,Chenxi Liao,001,2021-06-21_16h05.02.374,Dog face experiment_fully sample_601-900,2021.1.4,MacIntel,59.99520038
,,,,,,p,0.9132,0,95,95,95,1,95,images/pixabay_dog_000914.jpg,images/pixabay_dog_003357.jpg,Chenxi Liao,001,2021-06-21_16h05.02.374,Dog face experiment_fully sample_601-900,2021.1.4,MacIntel,59.99520038
,,,,,,p,0.8015,0,96,96,96,1,96,images/pixabay_dog_002793.jpg,images/pixabay_dog_002989.jpg,Chenxi Liao,001,2021-06-21_16h05.02.374,Dog face experiment_fully sample_601-900,2021.1.4,MacIntel,59.99520038
,,,,,,p,0.8332,0,97,97,97,1,97,images/pixabay_dog_000744.jpg,images/flickr_dog_000019.jpg,Chenxi Liao,001,2021-06-21_16h05.02.374,Dog face experiment_fully sample_601-900,2021.1.4,MacIntel,59.99520038
,,,,,,q,0.9277,0,98,98,98,1,98,images/pixabay_dog_003310.jpg,images/pixabay_dog_001465.jpg,Chenxi Liao,001,2021-06-21_16h05.02.374,Dog face experiment_fully sample_601-900,2021.1.4,MacIntel,59.99520038
,,,,,,p,0.7618,0,99,99,99,1,99,images/pixabay_dog_000914.jpg,images/flickr_dog_001107.jpg,Chenxi Liao,001,2021-06-21_16h05.02.374,Dog face experiment_fully sample_601-900,2021.1.4,MacIntel,59.99520038
,,,,,,q,0.8822,0,100,100,100,1,100,images/pixabay_dog_002360.jpg,images/pixabay_dog_001465.jpg,Chenxi Liao,001,2021-06-21_16h05.02.374,Dog face experiment_fully sample_601-900,2021.1.4,MacIntel,59.99520038
,,,,,,q,1.3101,0,101,101,101,1,101,images/flickr_dog_000932.jpg,images/flickr_dog_000913.jpg,Chenxi Liao,001,2021-06-21_16h05.02.374,Dog face experiment_fully sample_601-900,2021.1.4,MacIntel,59.99520038
,,,,,,p,1.1113,0,102,102,102,1,102,images/pixabay_dog_000825.jpg,images/pixabay_dog_001843.jpg,Chenxi Liao,001,2021-06-21_16h05.02.374,Dog face experiment_fully sample_601-900,2021.1.4,MacIntel,59.99520038
,,,,,,p,0.9109,0,103,103,103,1,103,images/pixabay_dog_002649.jpg,images/pixabay_dog_002793.jpg,Chenxi Liao,001,2021-06-21_16h05.02.374,Dog face experiment_fully sample_601-900,2021.1.4,MacIntel,59.99520038
,,,,,,q,0.8865,0,104,104,104,1,104,images/pixabay_dog_003310.jpg,images/pixabay_dog_000952.jpg,Chenxi Liao,001,2021-06-21_16h05.02.374,Dog face experiment_fully sample_601-900,2021.1.4,MacIntel,59.99520038
,,,,,,p,0.943,0,105,105,105,1,105,images/pixabay_dog_002899.jpg,images/flickr_dog_001107.jpg,Chenxi Liao,001,2021-06-21_16h05.02.374,Dog face experiment_fully sample_601-900,2021.1.4,MacIntel,59.99520038
,,,,,,q,0.9295,0,106,106,106,1,106,images/pixabay_dog_003305.jpg,images/flickr_dog_000279.jpg,Chenxi Liao,001,2021-06-21_16h05.02.374,Dog face experiment_fully sample_601-900,2021.1.4,MacIntel,59.99520038
,,,,,,p,1.0121,0,107,107,107,1,107,images/pixabay_dog_000744.jpg,images/flickr_dog_000932.jpg,Chenxi Liao,001,2021-06-21_16h05.02.374,Dog face experiment_fully sample_601-900,2021.1.4,MacIntel,59.99520038
,,,,,,p,1.0597,0,108,108,108,1,108,images/pixabay_dog_000853.jpg,images/pixabay_dog_000525.jpg,Chenxi Liao,001,2021-06-21_16h05.02.374,Dog face experiment_fully sample_601-900,2021.1.4,MacIntel,59.99520038
,,,,,,q,2.7657,0,109,109,109,1,109,images/pixabay_dog_002899.jpg,images/pixabay_dog_000853.jpg,Chenxi Liao,001,2021-06-21_16h05.02.374,Dog face experiment_fully sample_601-900,2021.1.4,MacIntel,59.99520038
,,,,,,q,0.7929,0,110,110,110,1,110,images/flickr_dog_000566.jpg,images/pixabay_dog_002861.jpg,Chenxi Liao,001,2021-06-21_16h05.02.374,Dog face experiment_fully sample_601-900,2021.1.4,MacIntel,59.99520038
,,,,,,q,0.7936,0,111,111,111,1,111,images/pixabay_dog_000914.jpg,images/pixabay_dog_000952.jpg,Chenxi Liao,001,2021-06-21_16h05.02.374,Dog face experiment_fully sample_601-900,2021.1.4,MacIntel,59.99520038
,,,,,,p,1.3004,0,112,112,112,1,112,images/flickr_dog_000932.jpg,images/pixabay_dog_001712.jpg,Chenxi Liao,001,2021-06-21_16h05.02.374,Dog face experiment_fully sample_601-900,2021.1.4,MacIntel,59.99520038
,,,,,,q,0.7342,0,113,113,113,1,113,images/pixabay_dog_002744.jpg,images/flickr_dog_000279.jpg,Chenxi Liao,001,2021-06-21_16h05.02.374,Dog face experiment_fully sample_601-900,2021.1.4,MacIntel,59.99520038
,,,,,,p,0.8983,0,114,114,114,1,114,images/pixabay_dog_001255.jpg,images/pixabay_dog_001465.jpg,Chenxi Liao,001,2021-06-21_16h05.02.374,Dog face experiment_fully sample_601-900,2021.1.4,MacIntel,59.99520038
,,,,,,p,1.2989,0,115,115,115,1,115,images/pixabay_dog_003829.jpg,images/pixabay_dog_001843.jpg,Chenxi Liao,001,2021-06-21_16h05.02.374,Dog face experiment_fully sample_601-900,2021.1.4,MacIntel,59.99520038
,,,,,,p,1.0603,0,116,116,116,1,116,images/pixabay_dog_000932.jpg,images/flickr_dog_001107.jpg,Chenxi Liao,001,2021-06-21_16h05.02.374,Dog face experiment_fully sample_601-900,2021.1.4,MacIntel,59.99520038
,,,,,,p,0.762,0,117,117,117,1,117,images/pixabay_dog_003971.jpg,images/pixabay_dog_003357.jpg,Chenxi Liao,001,2021-06-21_16h05.02.374,Dog face experiment_fully sample_601-900,2021.1.4,MacIntel,59.99520038
,,,,,,p,0.8515,0,118,118,118,1,118,images/pixabay_dog_003238.jpg,images/pixabay_dog_003829.jpg,Chenxi Liao,001,2021-06-21_16h05.02.374,Dog face experiment_fully sample_601-900,2021.1.4,MacIntel,59.99520038
,,,,,,p,1.2475,0,119,119,119,1,119,images/pixabay_dog_001960.jpg,images/flickr_dog_000194.jpg,Chenxi Liao,001,2021-06-21_16h05.02.374,Dog face experiment_fully sample_601-900,2021.1.4,MacIntel,59.99520038
,,,,,,p,1.0466,0,120,120,120,1,120,images/pixabay_dog_002899.jpg,images/pixabay_dog_000952.jpg,Chenxi Liao,001,2021-06-21_16h05.02.374,Dog face experiment_fully sample_601-900,2021.1.4,MacIntel,59.99520038
,,,,,,p,0.6761,0,121,121,121,1,121,images/flickr_dog_000566.jpg,images/flickr_dog_000932.jpg,Chenxi Liao,001,2021-06-21_16h05.02.374,Dog face experiment_fully sample_601-900,2021.1.4,MacIntel,59.99520038
,,,,,,p,0.7349,0,122,122,122,1,122,images/pixabay_dog_003310.jpg,images/pixabay_dog_001843.jpg,Chenxi Liao,001,2021-06-21_16h05.02.374,Dog face experiment_fully sample_601-900,2021.1.4,MacIntel,59.99520038
,,,,,,p,0.7283,0,123,123,123,1,123,images/pixabay_dog_001960.jpg,images/flickr_dog_001107.jpg,Chenxi Liao,001,2021-06-21_16h05.02.374,Dog face experiment_fully sample_601-900,2021.1.4,MacIntel,59.99520038
,,,,,,p,0.7587,0,124,124,124,1,124,images/pixabay_dog_001465.jpg,images/pixabay_dog_001843.jpg,Chenxi Liao,001,2021-06-21_16h05.02.374,Dog face experiment_fully sample_601-900,2021.1.4,MacIntel,59.99520038
,,,,,,p,1.4195,0,125,125,125,1,125,images/flickr_dog_000232.jpg,images/pixabay_dog_002596.jpg,Chenxi Liao,001,2021-06-21_16h05.02.374,Dog face experiment_fully sample_601-900,2021.1.4,MacIntel,59.99520038
,,,,,,p,0.6961,0,126,126,126,1,126,images/pixabay_dog_003238.jpg,images/flickr_dog_000261.jpg,Chenxi Liao,001,2021-06-21_16h05.02.374,Dog face experiment_fully sample_601-900,2021.1.4,MacIntel,59.99520038
,,,,,,p,0.8114,0,127,127,127,1,127,images/pixabay_dog_002899.jpg,images/flickr_dog_000266.jpg,Chenxi Liao,001,2021-06-21_16h05.02.374,Dog face experiment_fully sample_601-900,2021.1.4,MacIntel,59.99520038
,,,,,,q,1.4593,0,128,128,128,1,128,images/pixabay_dog_002649.jpg,images/pixabay_dog_001960.jpg,Chenxi Liao,001,2021-06-21_16h05.02.374,Dog face experiment_fully sample_601-900,2021.1.4,MacIntel,59.99520038
,,,,,,p,0.7269,0,129,129,129,1,129,images/pixabay_dog_002744.jpg,images/pixabay_dog_003357.jpg,Chenxi Liao,001,2021-06-21_16h05.02.374,Dog face experiment_fully sample_601-900,2021.1.4,MacIntel,59.99520038
,,,,,,p,1.2101,0,130,130,130,1,130,images/pixabay_dog_003098.jpg,images/pixabay_dog_000805.jpg,Chenxi Liao,001,2021-06-21_16h05.02.374,Dog face experiment_fully sample_601-900,2021.1.4,MacIntel,59.99520038
,,,,,,q,0.6929,0,131,131,131,1,131,images/flickr_dog_000861.jpg,images/pixabay_dog_000952.jpg,Chenxi Liao,001,2021-06-21_16h05.02.374,Dog face experiment_fully sample_601-900,2021.1.4,MacIntel,59.99520038
,,,,,,q,1.2428,0,132,132,132,1,132,images/flickr_dog_000566.jpg,images/flickr_dog_000266.jpg,Chenxi Liao,001,2021-06-21_16h05.02.374,Dog face experiment_fully sample_601-900,2021.1.4,MacIntel,59.99520038
,,,,,,q,1.0945,0,133,133,133,1,133,images/flickr_dog_000279.jpg,images/pixabay_dog_001960.jpg,Chenxi Liao,001,2021-06-21_16h05.02.374,Dog face experiment_fully sample_601-900,2021.1.4,MacIntel,59.99520038
,,,,,,p,0.8275,0,134,134,134,1,134,images/pixabay_dog_002649.jpg,images/pixabay_dog_002596.jpg,Chenxi Liao,001,2021-06-21_16h05.02.374,Dog face experiment_fully sample_601-900,2021.1.4,MacIntel,59.99520038
,,,,,,p,0.8165,0,135,135,135,1,135,images/pixabay_dog_002899.jpg,images/pixabay_dog_002744.jpg,Chenxi Liao,001,2021-06-21_16h05.02.374,Dog face experiment_fully sample_601-900,2021.1.4,MacIntel,59.99520038
,,,,,,p,1.2088,0,136,136,136,1,136,images/flickr_dog_000566.jpg,images/flickr_dog_000019.jpg,Chenxi Liao,001,2021-06-21_16h05.02.374,Dog face experiment_fully sample_601-900,2021.1.4,MacIntel,59.99520038
,,,,,,q,0.8115,0,137,137,137,1,137,images/flickr_dog_000932.jpg,images/pixabay_dog_003829.jpg,Chenxi Liao,001,2021-06-21_16h05.02.374,Dog face experiment_fully sample_601-900,2021.1.4,MacIntel,59.99520038
,,,,,,q,0.9946,0,138,138,138,1,138,images/flickr_dog_000266.jpg,images/pixabay_dog_001960.jpg,Chenxi Liao,001,2021-06-21_16h05.02.374,Dog face experiment_fully sample_601-900,2021.1.4,MacIntel,59.99520038
,,,,,,p,0.9938,0,139,139,139,1,139,images/flickr_dog_000932.jpg,images/pixabay_dog_000805.jpg,Chenxi Liao,001,2021-06-21_16h05.02.374,Dog face experiment_fully sample_601-900,2021.1.4,MacIntel,59.99520038
,,,,,,q,0.9281,0,140,140,140,1,140,images/flickr_dog_000861.jpg,images/pixabay_dog_000825.jpg,Chenxi Liao,001,2021-06-21_16h05.02.374,Dog face experiment_fully sample_601-900,2021.1.4,MacIntel,59.99520038
,,,,,,p,1.5124,0,141,141,141,1,141,images/pixabay_dog_000952.jpg,images/pixabay_dog_000525.jpg,Chenxi Liao,001,2021-06-21_16h05.02.374,Dog face experiment_fully sample_601-900,2021.1.4,MacIntel,59.99520038
,,,,,,p,0.8263,0,142,142,142,1,142,images/flickr_dog_000019.jpg,images/pixabay_dog_000825.jpg,Chenxi Liao,001,2021-06-21_16h05.02.374,Dog face experiment_fully sample_601-900,2021.1.4,MacIntel,59.99520038
,,,,,,p,0.8317,0,143,143,143,1,143,images/flickr_dog_000279.jpg,images/flickr_dog_000266.jpg,Chenxi Liao,001,2021-06-21_16h05.02.374,Dog face experiment_fully sample_601-900,2021.1.4,MacIntel,59.99520038
,,,,,,q,0.9104,0,144,144,144,1,144,images/flickr_dog_001079.jpg,images/pixabay_dog_002899.jpg,Chenxi Liao,001,2021-06-21_16h05.02.374,Dog face experiment_fully sample_601-900,2021.1.4,MacIntel,59.99520038
,,,,,,p,1.1672,0,145,145,145,1,145,images/pixabay_dog_002861.jpg,images/pixabay_dog_000853.jpg,Chenxi Liao,001,2021-06-21_16h05.02.374,Dog face experiment_fully sample_601-900,2021.1.4,MacIntel,59.99520038
,,,,,,q,2.0161,0,146,146,146,1,146,images/flickr_dog_000566.jpg,images/pixabay_dog_002899.jpg,Chenxi Liao,001,2021-06-21_16h05.02.374,Dog face experiment_fully sample_601-900,2021.1.4,MacIntel,59.99520038
,,,,,,q,0.913,0,147,147,147,1,147,images/pixabay_dog_003305.jpg,images/pixabay_dog_002268.jpg,Chenxi Liao,001,2021-06-21_16h05.02.374,Dog face experiment_fully sample_601-900,2021.1.4,MacIntel,59.99520038
,,,,,,p,0.818,0,148,148,148,1,148,images/pixabay_dog_000744.jpg,images/pixabay_dog_003357.jpg,Chenxi Liao,001,2021-06-21_16h05.02.374,Dog face experiment_fully sample_601-900,2021.1.4,MacIntel,59.99520038
,,,,,,q,0.7313,0,149,149,149,1,149,images/pixabay_dog_002744.jpg,images/pixabay_dog_002596.jpg,Chenxi Liao,001,2021-06-21_16h05.02.374,Dog face experiment_fully sample_601-900,2021.1.4,MacIntel,59.99520038
,,,,,,p,1.7967,0,150,150,150,1,150,images/pixabay_dog_003310.jpg,images/pixabay_dog_002596.jpg,Chenxi Liao,001,2021-06-21_16h05.02.374,Dog face experiment_fully sample_601-900,2021.1.4,MacIntel,59.99520038
,,,,,,p,0.7459,0,151,151,151,1,151,images/flickr_dog_000566.jpg,images/flickr_dog_001107.jpg,Chenxi Liao,001,2021-06-21_16h05.02.374,Dog face experiment_fully sample_601-900,2021.1.4,MacIntel,59.99520038
,,,,,,q,1.0266,0,152,152,152,1,152,images/pixabay_dog_003305.jpg,images/pixabay_dog_002899.jpg,Chenxi Liao,001,2021-06-21_16h05.02.374,Dog face experiment_fully sample_601-900,2021.1.4,MacIntel,59.99520038
,,,,,,p,1.0176,0,153,153,153,1,153,images/pixabay_dog_001255.jpg,images/pixabay_dog_000525.jpg,Chenxi Liao,001,2021-06-21_16h05.02.374,Dog face experiment_fully sample_601-900,2021.1.4,MacIntel,59.99520038
,,,,,,q,1.6462,0,154,154,154,1,154,images/pixabay_dog_001150.jpg,images/pixabay_dog_003238.jpg,Chenxi Liao,001,2021-06-21_16h05.02.374,Dog face experiment_fully sample_601-900,2021.1.4,MacIntel,59.99520038
,,,,,,p,0.8032,0,155,155,155,1,155,images/pixabay_dog_003238.jpg,images/flickr_dog_000266.jpg,Chenxi Liao,001,2021-06-21_16h05.02.374,Dog face experiment_fully sample_601-900,2021.1.4,MacIntel,59.99520038
,,,,,,p,0.9774,0,156,156,156,1,156,images/flickr_dog_000232.jpg,images/pixabay_dog_000525.jpg,Chenxi Liao,001,2021-06-21_16h05.02.374,Dog face experiment_fully sample_601-900,2021.1.4,MacIntel,59.99520038
,,,,,,p,0.7105,0,157,157,157,1,157,images/flickr_dog_000261.jpg,images/pixabay_dog_002793.jpg,Chenxi Liao,001,2021-06-21_16h05.02.374,Dog face experiment_fully sample_601-900,2021.1.4,MacIntel,59.99520038
,,,,,,p,0.9777,0,158,158,158,1,158,images/pixabay_dog_002649.jpg,images/flickr_dog_000266.jpg,Chenxi Liao,001,2021-06-21_16h05.02.374,Dog face experiment_fully sample_601-900,2021.1.4,MacIntel,59.99520038
,,,,,,p,0.9012,0,159,159,159,1,159,images/pixabay_dog_003727.jpg,images/pixabay_dog_003829.jpg,Chenxi Liao,001,2021-06-21_16h05.02.374,Dog face experiment_fully sample_601-900,2021.1.4,MacIntel,59.99520038
,,,,,,p,0.8654,0,160,160,160,1,160,images/pixabay_dog_000042.jpg,images/pixabay_dog_001524.jpg,Chenxi Liao,001,2021-06-21_16h05.02.374,Dog face experiment_fully sample_601-900,2021.1.4,MacIntel,59.99520038
,,,,,,q,0.9272,0,161,161,161,1,161,images/pixabay_dog_000914.jpg,images/flickr_dog_000083.jpg,Chenxi Liao,001,2021-06-21_16h05.02.374,Dog face experiment_fully sample_601-900,2021.1.4,MacIntel,59.99520038
,,,,,,p,0.7093,0,162,162,162,1,162,images/pixabay_dog_003238.jpg,images/pixabay_dog_002989.jpg,Chenxi Liao,001,2021-06-21_16h05.02.374,Dog face experiment_fully sample_601-900,2021.1.4,MacIntel,59.99520038
,,,,,,p,0.8287,0,163,163,163,1,163,images/pixabay_dog_002793.jpg,images/pixabay_dog_000932.jpg,Chenxi Liao,001,2021-06-21_16h05.02.374,Dog face experiment_fully sample_601-900,2021.1.4,MacIntel,59.99520038
,,,,,,p,0.7343,0,164,164,164,1,164,images/flickr_dog_000861.jpg,images/flickr_dog_000201.jpg,Chenxi Liao,001,2021-06-21_16h05.02.374,Dog face experiment_fully sample_601-900,2021.1.4,MacIntel,59.99520038
,,,,,,q,2.479,0,165,165,165,1,165,images/pixabay_dog_003098.jpg,images/pixabay_dog_002282.jpg,Chenxi Liao,001,2021-06-21_16h05.02.374,Dog face experiment_fully sample_601-900,2021.1.4,MacIntel,59.99520038
,,,,,,q,0.8496,0,166,166,166,1,166,images/flickr_dog_000861.jpg,images/pixabay_dog_001712.jpg,Chenxi Liao,001,2021-06-21_16h05.02.374,Dog face experiment_fully sample_601-900,2021.1.4,MacIntel,59.99520038
,,,,,,p,1.9592,0,167,167,167,1,167,images/pixabay_dog_003829.jpg,images/pixabay_dog_001524.jpg,Chenxi Liao,001,2021-06-21_16h05.02.374,Dog face experiment_fully sample_601-900,2021.1.4,MacIntel,59.99520038
,,,,,,p,1.4106,0,168,168,168,1,168,images/flickr_dog_000279.jpg,images/pixabay_dog_000525.jpg,Chenxi Liao,001,2021-06-21_16h05.02.374,Dog face experiment_fully sample_601-900,2021.1.4,MacIntel,59.99520038
,,,,,,q,0.8313,0,169,169,169,1,169,images/flickr_dog_000861.jpg,images/pixabay_dog_001524.jpg,Chenxi Liao,001,2021-06-21_16h05.02.374,Dog face experiment_fully sample_601-900,2021.1.4,MacIntel,59.99520038
,,,,,,q,0.7026,0,170,170,170,1,170,images/pixabay_dog_000914.jpg,images/pixabay_dog_001524.jpg,Chenxi Liao,001,2021-06-21_16h05.02.374,Dog face experiment_fully sample_601-900,2021.1.4,MacIntel,59.99520038
,,,,,,p,0.811,0,171,171,171,1,171,images/pixabay_dog_001465.jpg,images/pixabay_dog_002596.jpg,Chenxi Liao,001,2021-06-21_16h05.02.374,Dog face experiment_fully sample_601-900,2021.1.4,MacIntel,59.99520038
,,,,,,q,1.5356,0,172,172,172,1,172,images/pixabay_dog_000042.jpg,images/pixabay_dog_000805.jpg,Chenxi Liao,001,2021-06-21_16h05.02.374,Dog face experiment_fully sample_601-900,2021.1.4,MacIntel,59.99520038
,,,,,,q,0.8812,0,173,173,173,1,173,images/pixabay_dog_002861.jpg,images/flickr_dog_000279.jpg,Chenxi Liao,001,2021-06-21_16h05.02.374,Dog face experiment_fully sample_601-900,2021.1.4,MacIntel,59.99520038
,,,,,,p,1.3853,0,174,174,174,1,174,images/pixabay_dog_003727.jpg,images/flickr_dog_001107.jpg,Chenxi Liao,001,2021-06-21_16h05.02.374,Dog face experiment_fully sample_601-900,2021.1.4,MacIntel,59.99520038
,,,,,,p,0.9095,0,175,175,175,1,175,images/pixabay_dog_000914.jpg,images/flickr_dog_000913.jpg,Chenxi Liao,001,2021-06-21_16h05.02.374,Dog face experiment_fully sample_601-900,2021.1.4,MacIntel,59.99520038
,,,,,,p,1.2835,0,176,176,176,1,176,images/pixabay_dog_002268.jpg,images/flickr_dog_000232.jpg,Chenxi Liao,001,2021-06-21_16h05.02.374,Dog face experiment_fully sample_601-900,2021.1.4,MacIntel,59.99520038
,,,,,,p,1.0114,0,177,177,177,1,177,images/flickr_dog_000279.jpg,images/pixabay_dog_002282.jpg,Chenxi Liao,001,2021-06-21_16h05.02.374,Dog face experiment_fully sample_601-900,2021.1.4,MacIntel,59.99520038
,,,,,,q,0.9611,0,178,178,178,1,178,images/flickr_dog_001079.jpg,images/pixabay_dog_000952.jpg,Chenxi Liao,001,2021-06-21_16h05.02.374,Dog face experiment_fully sample_601-900,2021.1.4,MacIntel,59.99520038
,,,,,,q,0.999,0,179,179,179,1,179,images/pixabay_dog_002744.jpg,images/flickr_dog_000232.jpg,Chenxi Liao,001,2021-06-21_16h05.02.374,Dog face experiment_fully sample_601-900,2021.1.4,MacIntel,59.99520038
,,,,,,q,0.961,0,180,180,180,1,180,images/flickr_dog_000261.jpg,images/pixabay_dog_000853.jpg,Chenxi Liao,001,2021-06-21_16h05.02.374,Dog face experiment_fully sample_601-900,2021.1.4,MacIntel,59.99520038
,,,,,,p,0.814,0,181,181,181,1,181,images/pixabay_dog_002861.jpg,images/pixabay_dog_000525.jpg,Chenxi Liao,001,2021-06-21_16h05.02.374,Dog face experiment_fully sample_601-900,2021.1.4,MacIntel,59.99520038
,,,,,,p,0.765,0,182,182,182,1,182,images/pixabay_dog_002861.jpg,images/pixabay_dog_003859.jpg,Chenxi Liao,001,2021-06-21_16h05.02.374,Dog face experiment_fully sample_601-900,2021.1.4,MacIntel,59.99520038
,,,,,,p,0.7463,0,183,183,183,1,183,images/pixabay_dog_002861.jpg,images/pixabay_dog_003829.jpg,Chenxi Liao,001,2021-06-21_16h05.02.374,Dog face experiment_fully sample_601-900,2021.1.4,MacIntel,59.99520038
,,,,,,q,0.7016,0,184,184,184,1,184,images/pixabay_dog_001150.jpg,images/flickr_dog_000261.jpg,Chenxi Liao,001,2021-06-21_16h05.02.374,Dog face experiment_fully sample_601-900,2021.1.4,MacIntel,59.99520038
,,,,,,q,1.2176,0,185,185,185,1,185,images/pixabay_dog_000914.jpg,images/flickr_dog_000279.jpg,Chenxi Liao,001,2021-06-21_16h05.02.374,Dog face experiment_fully sample_601-900,2021.1.4,MacIntel,59.99520038
,,,,,,p,1.7835,0,186,186,186,1,186,images/pixabay_dog_000744.jpg,images/pixabay_dog_000805.jpg,Chenxi Liao,001,2021-06-21_16h05.02.374,Dog face experiment_fully sample_601-900,2021.1.4,MacIntel,59.99520038
,,,,,,q,0.827,0,187,187,187,1,187,images/pixabay_dog_003238.jpg,images/pixabay_dog_000932.jpg,Chenxi Liao,001,2021-06-21_16h05.02.374,Dog face experiment_fully sample_601-900,2021.1.4,MacIntel,59.99520038
,,,,,,p,0.9482,0,188,188,188,1,188,images/flickr_dog_000232.jpg,images/flickr_dog_000266.jpg,Chenxi Liao,001,2021-06-21_16h05.02.374,Dog face experiment_fully sample_601-900,2021.1.4,MacIntel,59.99520038
,,,,,,q,0.8158,0,189,189,189,1,189,images/pixabay_dog_000744.jpg,images/pixabay_dog_000952.jpg,Chenxi Liao,001,2021-06-21_16h05.02.374,Dog face experiment_fully sample_601-900,2021.1.4,MacIntel,59.99520038
,,,,,,q,0.6816,0,190,190,190,1,190,images/pixabay_dog_002744.jpg,images/pixabay_dog_001960.jpg,Chenxi Liao,001,2021-06-21_16h05.02.374,Dog face experiment_fully sample_601-900,2021.1.4,MacIntel,59.99520038
,,,,,,p,1.0127,0,191,191,191,1,191,images/pixabay_dog_003238.jpg,images/pixabay_dog_002793.jpg,Chenxi Liao,001,2021-06-21_16h05.02.374,Dog face experiment_fully sample_601-900,2021.1.4,MacIntel,59.99520038
,,,,,,q,0.8616,0,192,192,192,1,192,images/flickr_dog_000261.jpg,images/pixabay_dog_003310.jpg,Chenxi Liao,001,2021-06-21_16h05.02.374,Dog face experiment_fully sample_601-900,2021.1.4,MacIntel,59.99520038
,,,,,,p,0.9291,0,193,193,193,1,193,images/flickr_dog_000913.jpg,images/pixabay_dog_003357.jpg,Chenxi Liao,001,2021-06-21_16h05.02.374,Dog face experiment_fully sample_601-900,2021.1.4,MacIntel,59.99520038
,,,,,,p,1.5778,0,194,194,194,1,194,images/flickr_dog_000566.jpg,images/pixabay_dog_002360.jpg,Chenxi Liao,001,2021-06-21_16h05.02.374,Dog face experiment_fully sample_601-900,2021.1.4,MacIntel,59.99520038
,,,,,,p,0.9007,0,195,195,195,1,195,images/flickr_dog_000566.jpg,images/pixabay_dog_001150.jpg,Chenxi Liao,001,2021-06-21_16h05.02.374,Dog face experiment_fully sample_601-900,2021.1.4,MacIntel,59.99520038
,,,,,,p,0.679,0,196,196,196,1,196,images/flickr_dog_000566.jpg,images/pixabay_dog_003859.jpg,Chenxi Liao,001,2021-06-21_16h05.02.374,Dog face experiment_fully sample_601-900,2021.1.4,MacIntel,59.99520038
,,,,,,p,0.8028,0,197,197,197,1,197,images/pixabay_dog_001255.jpg,images/pixabay_dog_002793.jpg,Chenxi Liao,001,2021-06-21_16h05.02.374,Dog face experiment_fully sample_601-900,2021.1.4,MacIntel,59.99520038
,,,,,,p,0.8266,0,198,198,198,1,198,images/flickr_dog_000279.jpg,images/flickr_dog_000201.jpg,Chenxi Liao,001,2021-06-21_16h05.02.374,Dog face experiment_fully sample_601-900,2021.1.4,MacIntel,59.99520038
,,,,,,p,0.8954,0,199,199,199,1,199,images/pixabay_dog_001712.jpg,images/pixabay_dog_003829.jpg,Chenxi Liao,001,2021-06-21_16h05.02.374,Dog face experiment_fully sample_601-900,2021.1.4,MacIntel,59.99520038
,,,,,,p,0.7778,0,200,200,200,1,200,images/pixabay_dog_003971.jpg,images/pixabay_dog_002649.jpg,Chenxi Liao,001,2021-06-21_16h05.02.374,Dog face experiment_fully sample_601-900,2021.1.4,MacIntel,59.99520038
,,,,,,p,1.067,0,201,201,201,1,201,images/flickr_dog_000232.jpg,images/pixabay_dog_000825.jpg,Chenxi Liao,001,2021-06-21_16h05.02.374,Dog face experiment_fully sample_601-900,2021.1.4,MacIntel,59.99520038
,,,,,,q,0.9447,0,202,202,202,1,202,images/pixabay_dog_003098.jpg,images/pixabay_dog_000952.jpg,Chenxi Liao,001,2021-06-21_16h05.02.374,Dog face experiment_fully sample_601-900,2021.1.4,MacIntel,59.99520038
,,,,,,p,0.7433,0,203,203,203,1,203,images/pixabay_dog_000932.jpg,images/pixabay_dog_000525.jpg,Chenxi Liao,001,2021-06-21_16h05.02.374,Dog face experiment_fully sample_601-900,2021.1.4,MacIntel,59.99520038
,,,,,,p,0.8316,0,204,204,204,1,204,images/pixabay_dog_000744.jpg,images/flickr_dog_000261.jpg,Chenxi Liao,001,2021-06-21_16h05.02.374,Dog face experiment_fully sample_601-900,2021.1.4,MacIntel,59.99520038
,,,,,,q,0.8926,0,205,205,205,1,205,images/flickr_dog_001079.jpg,images/flickr_dog_000266.jpg,Chenxi Liao,001,2021-06-21_16h05.02.374,Dog face experiment_fully sample_601-900,2021.1.4,MacIntel,59.99520038
,,,,,,p,0.6773,0,206,206,206,1,206,images/pixabay_dog_002360.jpg,images/flickr_dog_001107.jpg,Chenxi Liao,001,2021-06-21_16h05.02.374,Dog face experiment_fully sample_601-900,2021.1.4,MacIntel,59.99520038
,,,,,,p,0.8846,0,207,207,207,1,207,images/pixabay_dog_002744.jpg,images/flickr_dog_000266.jpg,Chenxi Liao,001,2021-06-21_16h05.02.374,Dog face experiment_fully sample_601-900,2021.1.4,MacIntel,59.99520038
,,,,,,q,0.8826,0,208,208,208,1,208,images/flickr_dog_000201.jpg,images/pixabay_dog_002649.jpg,Chenxi Liao,001,2021-06-21_16h05.02.374,Dog face experiment_fully sample_601-900,2021.1.4,MacIntel,59.99520038
,,,,,,p,0.7803,0,209,209,209,1,209,images/pixabay_dog_003829.jpg,images/flickr_dog_000913.jpg,Chenxi Liao,001,2021-06-21_16h05.02.374,Dog face experiment_fully sample_601-900,2021.1.4,MacIntel,59.99520038
,,,,,,p,0.7974,0,210,210,210,1,210,images/pixabay_dog_002649.jpg,images/pixabay_dog_001843.jpg,Chenxi Liao,001,2021-06-21_16h05.02.374,Dog face experiment_fully sample_601-900,2021.1.4,MacIntel,59.99520038
,,,,,,p,0.8113,0,211,211,211,1,211,images/pixabay_dog_000042.jpg,images/flickr_dog_000279.jpg,Chenxi Liao,001,2021-06-21_16h05.02.374,Dog face experiment_fully sample_601-900,2021.1.4,MacIntel,59.99520038
,,,,,,p,0.8264,0,212,212,212,1,212,images/pixabay_dog_003859.jpg,images/pixabay_dog_003357.jpg,Chenxi Liao,001,2021-06-21_16h05.02.374,Dog face experiment_fully sample_601-900,2021.1.4,MacIntel,59.99520038
,,,,,,q,1.2457,0,213,213,213,1,213,images/pixabay_dog_001150.jpg,images/pixabay_dog_002360.jpg,Chenxi Liao,001,2021-06-21_16h05.02.374,Dog face experiment_fully sample_601-900,2021.1.4,MacIntel,59.99520038
,,,,,,q,0.9462,0,214,214,214,1,214,images/flickr_dog_000201.jpg,images/flickr_dog_000083.jpg,Chenxi Liao,001,2021-06-21_16h05.02.374,Dog face experiment_fully sample_601-900,2021.1.4,MacIntel,59.99520038
,,,,,,p,0.8854,0,215,215,215,1,215,images/pixabay_dog_001712.jpg,images/pixabay_dog_002282.jpg,Chenxi Liao,001,2021-06-21_16h05.02.374,Dog face experiment_fully sample_601-900,2021.1.4,MacIntel,59.99520038
,,,,,,p,1.9117,0,216,216,216,1,216,images/pixabay_dog_002268.jpg,images/pixabay_dog_002793.jpg,Chenxi Liao,001,2021-06-21_16h05.02.374,Dog face experiment_fully sample_601-900,2021.1.4,MacIntel,59.99520038
,,,,,,q,0.9943,0,217,217,217,1,217,images/pixabay_dog_003305.jpg,images/pixabay_dog_000805.jpg,Chenxi Liao,001,2021-06-21_16h05.02.374,Dog face experiment_fully sample_601-900,2021.1.4,MacIntel,59.99520038
,,,,,,q,0.8099,0,218,218,218,1,218,images/pixabay_dog_001150.jpg,images/pixabay_dog_002861.jpg,Chenxi Liao,001,2021-06-21_16h05.02.374,Dog face experiment_fully sample_601-900,2021.1.4,MacIntel,59.99520038
,,,,,,p,0.8267,0,219,219,219,1,219,images/pixabay_dog_003238.jpg,images/flickr_dog_000019.jpg,Chenxi Liao,001,2021-06-21_16h05.02.374,Dog face experiment_fully sample_601-900,2021.1.4,MacIntel,59.99520038
,,,,,,p,0.8115,0,220,220,220,1,220,images/pixabay_dog_000805.jpg,images/pixabay_dog_002989.jpg,Chenxi Liao,001,2021-06-21_16h05.02.374,Dog face experiment_fully sample_601-900,2021.1.4,MacIntel,59.99520038
,,,,,,q,0.7758,0,221,221,221,1,221,images/pixabay_dog_001150.jpg,images/pixabay_dog_002899.jpg,Chenxi Liao,001,2021-06-21_16h05.02.374,Dog face experiment_fully sample_601-900,2021.1.4,MacIntel,59.99520038
,,,,,,p,0.8473,0,222,222,222,1,222,images/pixabay_dog_001150.jpg,images/flickr_dog_001079.jpg,Chenxi Liao,001,2021-06-21_16h05.02.374,Dog face experiment_fully sample_601-900,2021.1.4,MacIntel,59.99520038
,,,,,,q,1.3494,0,223,223,223,1,223,images/pixabay_dog_002744.jpg,images/pixabay_dog_002861.jpg,Chenxi Liao,001,2021-06-21_16h05.02.374,Dog face experiment_fully sample_601-900,2021.1.4,MacIntel,59.99520038
,,,,,,p,1.2955,0,224,224,224,1,224,images/pixabay_dog_002793.jpg,images/pixabay_dog_000825.jpg,Chenxi Liao,001,2021-06-21_16h05.02.374,Dog face experiment_fully sample_601-900,2021.1.4,MacIntel,59.99520038
,,,,,,q,0.7432,0,225,225,225,1,225,images/flickr_dog_000861.jpg,images/pixabay_dog_002861.jpg,Chenxi Liao,001,2021-06-21_16h05.02.374,Dog face experiment_fully sample_601-900,2021.1.4,MacIntel,59.99520038
,,,,,,p,1.4468,0,226,226,226,1,226,images/pixabay_dog_000952.jpg,images/pixabay_dog_001465.jpg,Chenxi Liao,001,2021-06-21_16h05.02.374,Dog face experiment_fully sample_601-900,2021.1.4,MacIntel,59.99520038
,,,,,,p,0.8366,0,227,227,227,1,227,images/pixabay_dog_001960.jpg,images/pixabay_dog_002596.jpg,Chenxi Liao,001,2021-06-21_16h05.02.374,Dog face experiment_fully sample_601-900,2021.1.4,MacIntel,59.99520038
,,,,,,p,0.6754,0,228,228,228,1,228,images/pixabay_dog_000914.jpg,images/flickr_dog_000194.jpg,Chenxi Liao,001,2021-06-21_16h05.02.374,Dog face experiment_fully sample_601-900,2021.1.4,MacIntel,59.99520038
,,,,,,p,0.9273,0,229,229,229,1,229,images/pixabay_dog_000042.jpg,images/pixabay_dog_000825.jpg,Chenxi Liao,001,2021-06-21_16h05.02.374,Dog face experiment_fully sample_601-900,2021.1.4,MacIntel,59.99520038
,,,,,,q,0.7118,0,230,230,230,1,230,images/pixabay_dog_002861.jpg,images/pixabay_dog_003727.jpg,Chenxi Liao,001,2021-06-21_16h05.02.374,Dog face experiment_fully sample_601-900,2021.1.4,MacIntel,59.99520038
,,,,,,q,1.1634,0,231,231,231,1,231,images/pixabay_dog_000805.jpg,images/pixabay_dog_001465.jpg,Chenxi Liao,001,2021-06-21_16h05.02.374,Dog face experiment_fully sample_601-900,2021.1.4,MacIntel,59.99520038
,,,,,,q,0.7135,0,232,232,232,1,232,images/flickr_dog_000201.jpg,images/pixabay_dog_000932.jpg,Chenxi Liao,001,2021-06-21_16h05.02.374,Dog face experiment_fully sample_601-900,2021.1.4,MacIntel,59.99520038
,,,,,,p,0.6787,0,233,233,233,1,233,images/pixabay_dog_003305.jpg,images/pixabay_dog_002596.jpg,Chenxi Liao,001,2021-06-21_16h05.02.374,Dog face experiment_fully sample_601-900,2021.1.4,MacIntel,59.99520038
,,,,,,q,1.2467,0,234,234,234,1,234,images/pixabay_dog_000853.jpg,images/pixabay_dog_001524.jpg,Chenxi Liao,001,2021-06-21_16h05.02.374,Dog face experiment_fully sample_601-900,2021.1.4,MacIntel,59.99520038
,,,,,,p,0.8437,0,235,235,235,1,235,images/pixabay_dog_003310.jpg,images/pixabay_dog_000525.jpg,Chenxi Liao,001,2021-06-21_16h05.02.374,Dog face experiment_fully sample_601-900,2021.1.4,MacIntel,59.99520038
,,,,,,p,0.8013,0,236,236,236,1,236,images/pixabay_dog_002899.jpg,images/pixabay_dog_001465.jpg,Chenxi Liao,001,2021-06-21_16h05.02.374,Dog face experiment_fully sample_601-900,2021.1.4,MacIntel,59.99520038
,,,,,,q,0.7268,0,237,237,237,1,237,images/pixabay_dog_000525.jpg,images/flickr_dog_001107.jpg,Chenxi Liao,001,2021-06-21_16h05.02.374,Dog face experiment_fully sample_601-900,2021.1.4,MacIntel,59.99520038
,,,,,,p,0.597,0,238,238,238,1,238,images/flickr_dog_000261.jpg,images/flickr_dog_001107.jpg,Chenxi Liao,001,2021-06-21_16h05.02.374,Dog face experiment_fully sample_601-900,2021.1.4,MacIntel,59.99520038
,,,,,,q,1.6263,0,239,239,239,1,239,images/pixabay_dog_002360.jpg,images/flickr_dog_000932.jpg,Chenxi Liao,001,2021-06-21_16h05.02.374,Dog face experiment_fully sample_601-900,2021.1.4,MacIntel,59.99520038
,,,,,,q,1.0953,0,240,240,240,1,240,images/pixabay_dog_002268.jpg,images/pixabay_dog_001465.jpg,Chenxi Liao,001,2021-06-21_16h05.02.374,Dog face experiment_fully sample_601-900,2021.1.4,MacIntel,59.99520038
,,,,,,p,0.8676,0,241,241,241,1,241,images/pixabay_dog_001465.jpg,images/pixabay_dog_000525.jpg,Chenxi Liao,001,2021-06-21_16h05.02.374,Dog face experiment_fully sample_601-900,2021.1.4,MacIntel,59.99520038
,,,,,,p,1.0088,0,242,242,242,1,242,images/pixabay_dog_003727.jpg,images/pixabay_dog_000952.jpg,Chenxi Liao,001,2021-06-21_16h05.02.374,Dog face experiment_fully sample_601-900,2021.1.4,MacIntel,59.99520038
,,,,,,q,0.7986,0,243,243,243,1,243,images/flickr_dog_000861.jpg,images/pixabay_dog_000914.jpg,Chenxi Liao,001,2021-06-21_16h05.02.374,Dog face experiment_fully sample_601-900,2021.1.4,MacIntel,59.99520038
,,,,,,p,1.1123,0,244,244,244,1,244,images/flickr_dog_000279.jpg,images/flickr_dog_000083.jpg,Chenxi Liao,001,2021-06-21_16h05.02.374,Dog face experiment_fully sample_601-900,2021.1.4,MacIntel,59.99520038
,,,,,,p,0.9115,0,245,245,245,1,245,images/pixabay_dog_002989.jpg,images/pixabay_dog_002596.jpg,Chenxi Liao,001,2021-06-21_16h05.02.374,Dog face experiment_fully sample_601-900,2021.1.4,MacIntel,59.99520038
,,,,,,p,1.6484,0,246,246,246,1,246,images/pixabay_dog_000914.jpg,images/flickr_dog_000266.jpg,Chenxi Liao,001,2021-06-21_16h05.02.374,Dog face experiment_fully sample_601-900,2021.1.4,MacIntel,59.99520038
,,,,,,p,1.3657,0,247,247,247,1,247,images/pixabay_dog_002861.jpg,images/pixabay_dog_002793.jpg,Chenxi Liao,001,2021-06-21_16h05.02.374,Dog face experiment_fully sample_601-900,2021.1.4,MacIntel,59.99520038
,,,,,,p,1.3097,0,248,248,248,1,248,images/pixabay_dog_002989.jpg,images/flickr_dog_001107.jpg,Chenxi Liao,001,2021-06-21_16h05.02.374,Dog face experiment_fully sample_601-900,2021.1.4,MacIntel,59.99520038
,,,,,,q,0.9606,0,249,249,249,1,249,images/flickr_dog_000019.jpg,images/pixabay_dog_001255.jpg,Chenxi Liao,001,2021-06-21_16h05.02.374,Dog face experiment_fully sample_601-900,2021.1.4,MacIntel,59.99520038
,,,,,,q,0.9137,0,250,250,250,1,250,images/pixabay_dog_000744.jpg,images/pixabay_dog_003238.jpg,Chenxi Liao,001,2021-06-21_16h05.02.374,Dog face experiment_fully sample_601-900,2021.1.4,MacIntel,59.99520038
,,,,,,q,0.9603,0,251,251,251,1,251,images/flickr_dog_000266.jpg,images/pixabay_dog_000932.jpg,Chenxi Liao,001,2021-06-21_16h05.02.374,Dog face experiment_fully sample_601-900,2021.1.4,MacIntel,59.99520038
,,,,,,p,0.6806,0,252,252,252,1,252,images/pixabay_dog_001465.jpg,images/flickr_dog_001107.jpg,Chenxi Liao,001,2021-06-21_16h05.02.374,Dog face experiment_fully sample_601-900,2021.1.4,MacIntel,59.99520038
,,,,,,p,0.7655,0,253,253,253,1,253,images/pixabay_dog_003971.jpg,images/pixabay_dog_002989.jpg,Chenxi Liao,001,2021-06-21_16h05.02.374,Dog face experiment_fully sample_601-900,2021.1.4,MacIntel,59.99520038
,,,,,,q,1.0954,0,254,254,254,1,254,images/pixabay_dog_001150.jpg,images/flickr_dog_000019.jpg,Chenxi Liao,001,2021-06-21_16h05.02.374,Dog face experiment_fully sample_601-900,2021.1.4,MacIntel,59.99520038
,,,,,,p,1.3423,0,255,255,255,1,255,images/flickr_dog_000279.jpg,images/flickr_dog_000194.jpg,Chenxi Liao,001,2021-06-21_16h05.02.374,Dog face experiment_fully sample_601-900,2021.1.4,MacIntel,59.99520038
,,,,,,p,1.776,0,256,256,256,1,256,images/pixabay_dog_002861.jpg,images/flickr_dog_000083.jpg,Chenxi Liao,001,2021-06-21_16h05.02.374,Dog face experiment_fully sample_601-900,2021.1.4,MacIntel,59.99520038
,,,,,,p,0.7779,0,257,257,257,1,257,images/flickr_dog_000861.jpg,images/flickr_dog_001107.jpg,Chenxi Liao,001,2021-06-21_16h05.02.374,Dog face experiment_fully sample_601-900,2021.1.4,MacIntel,59.99520038
,,,,,,q,2.1813,0,258,258,258,1,258,images/pixabay_dog_000744.jpg,images/pixabay_dog_002861.jpg,Chenxi Liao,001,2021-06-21_16h05.02.374,Dog face experiment_fully sample_601-900,2021.1.4,MacIntel,59.99520038
,,,,,,q,3.9717,0,259,259,259,1,259,images/pixabay_dog_001712.jpg,images/pixabay_dog_000932.jpg,Chenxi Liao,001,2021-06-21_16h05.02.374,Dog face experiment_fully sample_601-900,2021.1.4,MacIntel,59.99520038
,,,,,,p,0.8328,0,260,260,260,1,260,images/flickr_dog_000019.jpg,images/pixabay_dog_001843.jpg,Chenxi Liao,001,2021-06-21_16h05.02.374,Dog face experiment_fully sample_601-900,2021.1.4,MacIntel,59.99520038
,,,,,,p,0.895,0,261,261,261,1,261,images/pixabay_dog_002282.jpg,images/flickr_dog_000266.jpg,Chenxi Liao,001,2021-06-21_16h05.02.374,Dog face experiment_fully sample_601-900,2021.1.4,MacIntel,59.99520038
,,,,,,p,0.8023,0,262,262,262,1,262,images/pixabay_dog_000952.jpg,images/pixabay_dog_003859.jpg,Chenxi Liao,001,2021-06-21_16h05.02.374,Dog face experiment_fully sample_601-900,2021.1.4,MacIntel,59.99520038
,,,,,,p,1.8332,0,263,263,263,1,263,images/pixabay_dog_003971.jpg,images/flickr_dog_000201.jpg,Chenxi Liao,001,2021-06-21_16h05.02.374,Dog face experiment_fully sample_601-900,2021.1.4,MacIntel,59.99520038
,,,,,,p,0.9187,0,264,264,264,1,264,images/flickr_dog_000932.jpg,images/pixabay_dog_003859.jpg,Chenxi Liao,001,2021-06-21_16h05.02.374,Dog face experiment_fully sample_601-900,2021.1.4,MacIntel,59.99520038
,,,,,,p,0.7163,0,265,265,265,1,265,images/flickr_dog_000932.jpg,images/pixabay_dog_001843.jpg,Chenxi Liao,001,2021-06-21_16h05.02.374,Dog face experiment_fully sample_601-900,2021.1.4,MacIntel,59.99520038
,,,,,,p,0.9941,0,266,266,266,1,266,images/pixabay_dog_002861.jpg,images/pixabay_dog_001524.jpg,Chenxi Liao,001,2021-06-21_16h05.02.374,Dog face experiment_fully sample_601-900,2021.1.4,MacIntel,59.99520038
,,,,,,p,0.9133,0,267,267,267,1,267,images/pixabay_dog_003238.jpg,images/pixabay_dog_001465.jpg,Chenxi Liao,001,2021-06-21_16h05.02.374,Dog face experiment_fully sample_601-900,2021.1.4,MacIntel,59.99520038
,,,,,,p,0.9106,0,268,268,268,1,268,images/pixabay_dog_003604.jpg,images/pixabay_dog_000825.jpg,Chenxi Liao,001,2021-06-21_16h05.02.374,Dog face experiment_fully sample_601-900,2021.1.4,MacIntel,59.99520038
,,,,,,p,1.3116,0,269,269,269,1,269,images/pixabay_dog_003098.jpg,images/pixabay_dog_002793.jpg,Chenxi Liao,001,2021-06-21_16h05.02.374,Dog face experiment_fully sample_601-900,2021.1.4,MacIntel,59.99520038
,,,,,,q,0.9683,0,270,270,270,1,270,images/pixabay_dog_003305.jpg,images/pixabay_dog_002989.jpg,Chenxi Liao,001,2021-06-21_16h05.02.374,Dog face experiment_fully sample_601-900,2021.1.4,MacIntel,59.99520038
,,,,,,p,1.5269,0,271,271,271,1,271,images/flickr_dog_000566.jpg,images/pixabay_dog_003305.jpg,Chenxi Liao,001,2021-06-21_16h05.02.374,Dog face experiment_fully sample_601-900,2021.1.4,MacIntel,59.99520038
,,,,,,p,0.7903,0,272,272,272,1,272,images/pixabay_dog_002899.jpg,images/pixabay_dog_002793.jpg,Chenxi Liao,001,2021-06-21_16h05.02.374,Dog face experiment_fully sample_601-900,2021.1.4,MacIntel,59.99520038
,,,,,,p,1.2623,0,273,273,273,1,273,images/flickr_dog_000279.jpg,images/pixabay_dog_002793.jpg,Chenxi Liao,001,2021-06-21_16h05.02.374,Dog face experiment_fully sample_601-900,2021.1.4,MacIntel,59.99520038
,,,,,,q,0.8928,0,274,274,274,1,274,images/flickr_dog_000261.jpg,images/flickr_dog_000932.jpg,Chenxi Liao,001,2021-06-21_16h05.02.374,Dog face experiment_fully sample_601-900,2021.1.4,MacIntel,59.99520038
,,,,,,p,0.7623,0,275,275,275,1,275,images/flickr_dog_000019.jpg,images/flickr_dog_001107.jpg,Chenxi Liao,001,2021-06-21_16h05.02.374,Dog face experiment_fully sample_601-900,2021.1.4,MacIntel,59.99520038
,,,,,,q,0.9142,0,276,276,276,1,276,images/pixabay_dog_001712.jpg,images/pixabay_dog_000805.jpg,Chenxi Liao,001,2021-06-21_16h05.02.374,Dog face experiment_fully sample_601-900,2021.1.4,MacIntel,59.99520038
,,,,,,q,0.7967,0,277,277,277,1,277,images/pixabay_dog_001150.jpg,images/pixabay_dog_003829.jpg,Chenxi Liao,001,2021-06-21_16h05.02.374,Dog face experiment_fully sample_601-900,2021.1.4,MacIntel,59.99520038
,,,,,,p,0.8444,0,278,278,278,1,278,images/pixabay_dog_003971.jpg,images/pixabay_dog_002793.jpg,Chenxi Liao,001,2021-06-21_16h05.02.374,Dog face experiment_fully sample_601-900,2021.1.4,MacIntel,59.99520038
,,,,,,q,1.0782,0,279,279,279,1,279,images/pixabay_dog_000825.jpg,images/pixabay_dog_001524.jpg,Chenxi Liao,001,2021-06-21_16h05.02.374,Dog face experiment_fully sample_601-900,2021.1.4,MacIntel,59.99520038
,,,,,,q,0.884,0,280,280,280,1,280,images/pixabay_dog_001150.jpg,images/pixabay_dog_002282.jpg,Chenxi Liao,001,2021-06-21_16h05.02.374,Dog face experiment_fully sample_601-900,2021.1.4,MacIntel,59.99520038
,,,,,,p,0.8314,0,281,281,281,1,281,images/pixabay_dog_000042.jpg,images/pixabay_dog_002360.jpg,Chenxi Liao,001,2021-06-21_16h05.02.374,Dog face experiment_fully sample_601-900,2021.1.4,MacIntel,59.99520038
,,,,,,p,1.3654,0,282,282,282,1,282,images/pixabay_dog_002268.jpg,images/flickr_dog_000932.jpg,Chenxi Liao,001,2021-06-21_16h05.02.374,Dog face experiment_fully sample_601-900,2021.1.4,MacIntel,59.99520038
,,,,,,q,0.7267,0,283,283,283,1,283,images/pixabay_dog_000825.jpg,images/flickr_dog_000194.jpg,Chenxi Liao,001,2021-06-21_16h05.02.374,Dog face experiment_fully sample_601-900,2021.1.4,MacIntel,59.99520038
,,,,,,p,0.9841,0,284,284,284,1,284,images/pixabay_dog_000932.jpg,images/pixabay_dog_001843.jpg,Chenxi Liao,001,2021-06-21_16h05.02.374,Dog face experiment_fully sample_601-900,2021.1.4,MacIntel,59.99520038
,,,,,,p,1.0436,0,285,285,285,1,285,images/pixabay_dog_001712.jpg,images/flickr_dog_000913.jpg,Chenxi Liao,001,2021-06-21_16h05.02.374,Dog face experiment_fully sample_601-900,2021.1.4,MacIntel,59.99520038
,,,,,,p,0.6696,0,286,286,286,1,286,images/pixabay_dog_003971.jpg,images/pixabay_dog_001465.jpg,Chenxi Liao,001,2021-06-21_16h05.02.374,Dog face experiment_fully sample_601-900,2021.1.4,MacIntel,59.99520038
,,,,,,p,1.2176,0,287,287,287,1,287,images/pixabay_dog_002744.jpg,images/pixabay_dog_002793.jpg,Chenxi Liao,001,2021-06-21_16h05.02.374,Dog face experiment_fully sample_601-900,2021.1.4,MacIntel,59.99520038
,,,,,,q,0.9176,0,288,288,288,1,288,images/flickr_dog_000861.jpg,images/pixabay_dog_001465.jpg,Chenxi Liao,001,2021-06-21_16h05.02.374,Dog face experiment_fully sample_601-900,2021.1.4,MacIntel,59.99520038
,,,,,,q,0.9688,0,289,289,289,1,289,images/flickr_dog_001079.jpg,images/pixabay_dog_003727.jpg,Chenxi Liao,001,2021-06-21_16h05.02.374,Dog face experiment_fully sample_601-900,2021.1.4,MacIntel,59.99520038
,,,,,,p,1.1108,0,290,290,290,1,290,images/flickr_dog_000279.jpg,images/pixabay_dog_001843.jpg,Chenxi Liao,001,2021-06-21_16h05.02.374,Dog face experiment_fully sample_601-900,2021.1.4,MacIntel,59.99520038
,,,,,,q,0.9937,0,291,291,291,1,291,images/pixabay_dog_001150.jpg,images/flickr_dog_000194.jpg,Chenxi Liao,001,2021-06-21_16h05.02.374,Dog face experiment_fully sample_601-900,2021.1.4,MacIntel,59.99520038
,,,,,,q,1.5645,0,292,292,292,1,292,images/pixabay_dog_000914.jpg,images/pixabay_dog_003604.jpg,Chenxi Liao,001,2021-06-21_16h05.02.374,Dog face experiment_fully sample_601-900,2021.1.4,MacIntel,59.99520038
,,,,,,q,1.0835,0,293,293,293,1,293,images/pixabay_dog_002360.jpg,images/pixabay_dog_001960.jpg,Chenxi Liao,001,2021-06-21_16h05.02.374,Dog face experiment_fully sample_601-900,2021.1.4,MacIntel,59.99520038
,,,,,,q,1.0495,0,294,294,294,1,294,images/flickr_dog_000932.jpg,images/flickr_dog_000232.jpg,Chenxi Liao,001,2021-06-21_16h05.02.374,Dog face experiment_fully sample_601-900,2021.1.4,MacIntel,59.99520038
,,,,,,p,0.7332,0,295,295,295,1,295,images/pixabay_dog_000042.jpg,images/pixabay_dog_003357.jpg,Chenxi Liao,001,2021-06-21_16h05.02.374,Dog face experiment_fully sample_601-900,2021.1.4,MacIntel,59.99520038
,,,,,,q,1.7047,0,296,296,296,1,296,images/flickr_dog_000566.jpg,images/flickr_dog_000194.jpg,Chenxi Liao,001,2021-06-21_16h05.02.374,Dog face experiment_fully sample_601-900,2021.1.4,MacIntel,59.99520038
,,,,,,p,0.784,0,297,297,297,1,297,images/pixabay_dog_003971.jpg,images/flickr_dog_000232.jpg,Chenxi Liao,001,2021-06-21_16h05.02.374,Dog face experiment_fully sample_601-900,2021.1.4,MacIntel,59.99520038
,,,,,,q,0.7508,0,298,298,298,1,298,images/flickr_dog_000932.jpg,images/pixabay_dog_002596.jpg,Chenxi Liao,001,2021-06-21_16h05.02.374,Dog face experiment_fully sample_601-900,2021.1.4,MacIntel,59.99520038
,,,,,,q,1.0802,0,299,299,299,1,299,images/flickr_dog_000913.jpg,images/pixabay_dog_000525.jpg,Chenxi Liao,001,2021-06-21_16h05.02.374,Dog face experiment_fully sample_601-900,2021.1.4,MacIntel,59.99520038
