key_resp.keys,key_resp.rt,key_resp_2.keys,key_resp_2.rt,key_resp_3.keys,key_resp_3.rt,key_resp_4.keys,key_resp_4.rt,trials.thisRepN,trials.thisTrialN,trials.thisN,trials.thisIndex,trials.ran,trail_nums,img1,img2,participant,session,date,expName,psychopyVersion,OS,frameRate
space,0.9666,space,0.4399,space,0.3782,q,2.1181,0,0,0,0,1,0,images/pixabay_dog_003305.jpg,images/pixabay_dog_000825.jpg,Chenxi Liao,001,2021-06-21_16h10.48.497,Dog face experiment_fully sample_901-1225,2021.1.4,MacIntel,59.99520038
,,,,,,p,0.9261,0,1,1,1,1,1,images/pixabay_dog_002268.jpg,images/pixabay_dog_003357.jpg,Chenxi Liao,001,2021-06-21_16h10.48.497,Dog face experiment_fully sample_901-1225,2021.1.4,MacIntel,59.99520038
,,,,,,q,0.7886,0,2,2,2,1,2,images/flickr_dog_001079.jpg,images/pixabay_dog_002744.jpg,Chenxi Liao,001,2021-06-21_16h10.48.497,Dog face experiment_fully sample_901-1225,2021.1.4,MacIntel,59.99520038
,,,,,,q,1.1149,0,3,3,3,1,3,images/flickr_dog_001079.jpg,images/pixabay_dog_003357.jpg,Chenxi Liao,001,2021-06-21_16h10.48.497,Dog face experiment_fully sample_901-1225,2021.1.4,MacIntel,59.99520038
,,,,,,q,0.8125,0,4,4,4,1,4,images/flickr_dog_001079.jpg,images/flickr_dog_000083.jpg,Chenxi Liao,001,2021-06-21_16h10.48.497,Dog face experiment_fully sample_901-1225,2021.1.4,MacIntel,59.99520038
,,,,,,q,0.8892,0,5,5,5,1,5,images/flickr_dog_000019.jpg,images/flickr_dog_000279.jpg,Chenxi Liao,001,2021-06-21_16h10.48.497,Dog face experiment_fully sample_901-1225,2021.1.4,MacIntel,59.99520038
,,,,,,p,1.1237,0,6,6,6,1,6,images/pixabay_dog_002861.jpg,images/flickr_dog_000913.jpg,Chenxi Liao,001,2021-06-21_16h10.48.497,Dog face experiment_fully sample_901-1225,2021.1.4,MacIntel,59.99520038
,,,,,,p,0.7887,0,7,7,7,1,7,images/flickr_dog_001079.jpg,images/pixabay_dog_002989.jpg,Chenxi Liao,001,2021-06-21_16h10.48.497,Dog face experiment_fully sample_901-1225,2021.1.4,MacIntel,59.99520038
,,,,,,q,1.029,0,8,8,8,1,8,images/flickr_dog_000861.jpg,images/flickr_dog_000194.jpg,Chenxi Liao,001,2021-06-21_16h10.48.497,Dog face experiment_fully sample_901-1225,2021.1.4,MacIntel,59.99520038
,,,,,,p,1.3671,0,9,9,9,1,9,images/flickr_dog_000266.jpg,images/pixabay_dog_003357.jpg,Chenxi Liao,001,2021-06-21_16h10.48.497,Dog face experiment_fully sample_901-1225,2021.1.4,MacIntel,59.99520038
,,,,,,p,0.7568,0,10,10,10,1,10,images/pixabay_dog_003727.jpg,images/flickr_dog_000913.jpg,Chenxi Liao,001,2021-06-21_16h10.48.497,Dog face experiment_fully sample_901-1225,2021.1.4,MacIntel,59.99520038
,,,,,,p,1.1076,0,11,11,11,1,11,images/pixabay_dog_001465.jpg,images/pixabay_dog_003357.jpg,Chenxi Liao,001,2021-06-21_16h10.48.497,Dog face experiment_fully sample_901-1225,2021.1.4,MacIntel,59.99520038
,,,,,,p,0.858,0,12,12,12,1,12,images/pixabay_dog_002649.jpg,images/flickr_dog_001107.jpg,Chenxi Liao,001,2021-06-21_16h10.48.497,Dog face experiment_fully sample_901-1225,2021.1.4,MacIntel,59.99520038
,,,,,,p,1.1642,0,13,13,13,1,13,images/pixabay_dog_003727.jpg,images/pixabay_dog_000853.jpg,Chenxi Liao,001,2021-06-21_16h10.48.497,Dog face experiment_fully sample_901-1225,2021.1.4,MacIntel,59.99520038
,,,,,,p,0.8418,0,14,14,14,1,14,images/pixabay_dog_000042.jpg,images/flickr_dog_000566.jpg,Chenxi Liao,001,2021-06-21_16h10.48.497,Dog face experiment_fully sample_901-1225,2021.1.4,MacIntel,59.99520038
,,,,,,p,0.7454,0,15,15,15,1,15,images/flickr_dog_000566.jpg,images/pixabay_dog_001465.jpg,Chenxi Liao,001,2021-06-21_16h10.48.497,Dog face experiment_fully sample_901-1225,2021.1.4,MacIntel,59.99520038
,,,,,,q,1.8246,0,16,16,16,1,16,images/pixabay_dog_002268.jpg,images/pixabay_dog_001960.jpg,Chenxi Liao,001,2021-06-21_16h10.48.497,Dog face experiment_fully sample_901-1225,2021.1.4,MacIntel,59.99520038
,,,,,,p,0.878,0,17,17,17,1,17,images/pixabay_dog_002268.jpg,images/pixabay_dog_000914.jpg,Chenxi Liao,001,2021-06-21_16h10.48.497,Dog face experiment_fully sample_901-1225,2021.1.4,MacIntel,59.99520038
,,,,,,q,0.8104,0,18,18,18,1,18,images/flickr_dog_000932.jpg,images/pixabay_dog_003604.jpg,Chenxi Liao,001,2021-06-21_16h10.48.497,Dog face experiment_fully sample_901-1225,2021.1.4,MacIntel,59.99520038
,,,,,,p,1.5174,0,19,19,19,1,19,images/flickr_dog_001079.jpg,images/flickr_dog_000261.jpg,Chenxi Liao,001,2021-06-21_16h10.48.497,Dog face experiment_fully sample_901-1225,2021.1.4,MacIntel,59.99520038
,,,,,,p,1.4445,0,20,20,20,1,20,images/flickr_dog_000201.jpg,images/flickr_dog_000266.jpg,Chenxi Liao,001,2021-06-21_16h10.48.497,Dog face experiment_fully sample_901-1225,2021.1.4,MacIntel,59.99520038
,,,,,,p,1.6182,0,21,21,21,1,21,images/pixabay_dog_002899.jpg,images/flickr_dog_000201.jpg,Chenxi Liao,001,2021-06-21_16h10.48.497,Dog face experiment_fully sample_901-1225,2021.1.4,MacIntel,59.99520038
,,,,,,q,0.9766,0,22,22,22,1,22,images/flickr_dog_000201.jpg,images/pixabay_dog_003727.jpg,Chenxi Liao,001,2021-06-21_16h10.48.497,Dog face experiment_fully sample_901-1225,2021.1.4,MacIntel,59.99520038
,,,,,,q,1.5422,0,23,23,23,1,23,images/flickr_dog_000083.jpg,images/pixabay_dog_002649.jpg,Chenxi Liao,001,2021-06-21_16h10.48.497,Dog face experiment_fully sample_901-1225,2021.1.4,MacIntel,59.99520038
,,,,,,q,0.8948,0,24,24,24,1,24,images/pixabay_dog_003859.jpg,images/pixabay_dog_001524.jpg,Chenxi Liao,001,2021-06-21_16h10.48.497,Dog face experiment_fully sample_901-1225,2021.1.4,MacIntel,59.99520038
,,,,,,q,0.7256,0,25,25,25,1,25,images/pixabay_dog_002899.jpg,images/pixabay_dog_003727.jpg,Chenxi Liao,001,2021-06-21_16h10.48.497,Dog face experiment_fully sample_901-1225,2021.1.4,MacIntel,59.99520038
,,,,,,p,0.758,0,26,26,26,1,26,images/pixabay_dog_002268.jpg,images/flickr_dog_000194.jpg,Chenxi Liao,001,2021-06-21_16h10.48.497,Dog face experiment_fully sample_901-1225,2021.1.4,MacIntel,59.99520038
,,,,,,p,1.6412,0,27,27,27,1,27,images/pixabay_dog_002282.jpg,images/pixabay_dog_000805.jpg,Chenxi Liao,001,2021-06-21_16h10.48.497,Dog face experiment_fully sample_901-1225,2021.1.4,MacIntel,59.99520038
,,,,,,p,1.1255,0,28,28,28,1,28,images/pixabay_dog_000042.jpg,images/pixabay_dog_001960.jpg,Chenxi Liao,001,2021-06-21_16h10.48.497,Dog face experiment_fully sample_901-1225,2021.1.4,MacIntel,59.99520038
,,,,,,q,2.1178,0,29,29,29,1,29,images/pixabay_dog_002360.jpg,images/flickr_dog_000201.jpg,Chenxi Liao,001,2021-06-21_16h10.48.497,Dog face experiment_fully sample_901-1225,2021.1.4,MacIntel,59.99520038
,,,,,,q,3.0095,0,30,30,30,1,30,images/pixabay_dog_002268.jpg,images/pixabay_dog_003238.jpg,Chenxi Liao,001,2021-06-21_16h10.48.497,Dog face experiment_fully sample_901-1225,2021.1.4,MacIntel,59.99520038
,,,,,,p,1.3745,0,31,31,31,1,31,images/pixabay_dog_003727.jpg,images/pixabay_dog_000805.jpg,Chenxi Liao,001,2021-06-21_16h10.48.497,Dog face experiment_fully sample_901-1225,2021.1.4,MacIntel,59.99520038
,,,,,,q,1.3951,0,32,32,32,1,32,images/pixabay_dog_002899.jpg,images/pixabay_dog_002268.jpg,Chenxi Liao,001,2021-06-21_16h10.48.497,Dog face experiment_fully sample_901-1225,2021.1.4,MacIntel,59.99520038
,,,,,,q,0.842,0,33,33,33,1,33,images/pixabay_dog_000744.jpg,images/pixabay_dog_002793.jpg,Chenxi Liao,001,2021-06-21_16h10.48.497,Dog face experiment_fully sample_901-1225,2021.1.4,MacIntel,59.99520038
,,,,,,p,0.994,0,34,34,34,1,34,images/pixabay_dog_003727.jpg,images/pixabay_dog_002649.jpg,Chenxi Liao,001,2021-06-21_16h10.48.497,Dog face experiment_fully sample_901-1225,2021.1.4,MacIntel,59.99520038
,,,,,,q,0.897,0,35,35,35,1,35,images/flickr_dog_000861.jpg,images/pixabay_dog_000805.jpg,Chenxi Liao,001,2021-06-21_16h10.48.497,Dog face experiment_fully sample_901-1225,2021.1.4,MacIntel,59.99520038
,,,,,,q,1.0829,0,36,36,36,1,36,images/flickr_dog_000932.jpg,images/pixabay_dog_000932.jpg,Chenxi Liao,001,2021-06-21_16h10.48.497,Dog face experiment_fully sample_901-1225,2021.1.4,MacIntel,59.99520038
,,,,,,q,0.7471,0,37,37,37,1,37,images/pixabay_dog_002744.jpg,images/pixabay_dog_000914.jpg,Chenxi Liao,001,2021-06-21_16h10.48.497,Dog face experiment_fully sample_901-1225,2021.1.4,MacIntel,59.99520038
,,,,,,q,0.7274,0,38,38,38,1,38,images/flickr_dog_000861.jpg,images/pixabay_dog_002360.jpg,Chenxi Liao,001,2021-06-21_16h10.48.497,Dog face experiment_fully sample_901-1225,2021.1.4,MacIntel,59.99520038
,,,,,,p,0.7126,0,39,39,39,1,39,images/pixabay_dog_002268.jpg,images/flickr_dog_001107.jpg,Chenxi Liao,001,2021-06-21_16h10.48.497,Dog face experiment_fully sample_901-1225,2021.1.4,MacIntel,59.99520038
,,,,,,q,0.76,0,40,40,40,1,40,images/pixabay_dog_003305.jpg,images/pixabay_dog_002793.jpg,Chenxi Liao,001,2021-06-21_16h10.48.497,Dog face experiment_fully sample_901-1225,2021.1.4,MacIntel,59.99520038
,,,,,,q,0.9819,0,41,41,41,1,41,images/flickr_dog_000932.jpg,images/pixabay_dog_002282.jpg,Chenxi Liao,001,2021-06-21_16h10.48.497,Dog face experiment_fully sample_901-1225,2021.1.4,MacIntel,59.99520038
,,,,,,p,0.9318,0,42,42,42,1,42,images/pixabay_dog_002861.jpg,images/pixabay_dog_000914.jpg,Chenxi Liao,001,2021-06-21_16h10.48.497,Dog face experiment_fully sample_901-1225,2021.1.4,MacIntel,59.99520038
,,,,,,q,0.7431,0,43,43,43,1,43,images/flickr_dog_000861.jpg,images/pixabay_dog_002793.jpg,Chenxi Liao,001,2021-06-21_16h10.48.497,Dog face experiment_fully sample_901-1225,2021.1.4,MacIntel,59.99520038
,,,,,,q,0.7656,0,44,44,44,1,44,images/pixabay_dog_003604.jpg,images/pixabay_dog_001960.jpg,Chenxi Liao,001,2021-06-21_16h10.48.497,Dog face experiment_fully sample_901-1225,2021.1.4,MacIntel,59.99520038
,,,,,,p,0.6893,0,45,45,45,1,45,images/flickr_dog_000083.jpg,images/flickr_dog_000266.jpg,Chenxi Liao,001,2021-06-21_16h10.48.497,Dog face experiment_fully sample_901-1225,2021.1.4,MacIntel,59.99520038
,,,,,,q,0.9253,0,46,46,46,1,46,images/pixabay_dog_002899.jpg,images/flickr_dog_000232.jpg,Chenxi Liao,001,2021-06-21_16h10.48.497,Dog face experiment_fully sample_901-1225,2021.1.4,MacIntel,59.99520038
,,,,,,q,0.6597,0,47,47,47,1,47,images/flickr_dog_000261.jpg,images/flickr_dog_000201.jpg,Chenxi Liao,001,2021-06-21_16h10.48.497,Dog face experiment_fully sample_901-1225,2021.1.4,MacIntel,59.99520038
,,,,,,p,0.9305,0,48,48,48,1,48,images/pixabay_dog_002649.jpg,images/pixabay_dog_000825.jpg,Chenxi Liao,001,2021-06-21_16h10.48.497,Dog face experiment_fully sample_901-1225,2021.1.4,MacIntel,59.99520038
,,,,,,q,1.162,0,49,49,49,1,49,images/flickr_dog_001079.jpg,images/pixabay_dog_003859.jpg,Chenxi Liao,001,2021-06-21_16h10.48.497,Dog face experiment_fully sample_901-1225,2021.1.4,MacIntel,59.99520038
,,,,,,p,0.9945,0,50,50,50,1,50,images/pixabay_dog_000805.jpg,images/pixabay_dog_002793.jpg,Chenxi Liao,001,2021-06-21_16h10.48.497,Dog face experiment_fully sample_901-1225,2021.1.4,MacIntel,59.99520038
,,,,,,p,0.6774,0,51,51,51,1,51,images/pixabay_dog_000952.jpg,images/flickr_dog_001107.jpg,Chenxi Liao,001,2021-06-21_16h10.48.497,Dog face experiment_fully sample_901-1225,2021.1.4,MacIntel,59.99520038
,,,,,,q,1.3026,0,52,52,52,1,52,images/flickr_dog_000861.jpg,images/pixabay_dog_002649.jpg,Chenxi Liao,001,2021-06-21_16h10.48.497,Dog face experiment_fully sample_901-1225,2021.1.4,MacIntel,59.99520038
,,,,,,q,0.624,0,53,53,53,1,53,images/pixabay_dog_001150.jpg,images/pixabay_dog_002596.jpg,Chenxi Liao,001,2021-06-21_16h10.48.497,Dog face experiment_fully sample_901-1225,2021.1.4,MacIntel,59.99520038
,,,,,,q,0.7905,0,54,54,54,1,54,images/flickr_dog_000201.jpg,images/pixabay_dog_000525.jpg,Chenxi Liao,001,2021-06-21_16h10.48.497,Dog face experiment_fully sample_901-1225,2021.1.4,MacIntel,59.99520038
,,,,,,p,0.6283,0,55,55,55,1,55,images/pixabay_dog_003971.jpg,images/flickr_dog_001107.jpg,Chenxi Liao,001,2021-06-21_16h10.48.497,Dog face experiment_fully sample_901-1225,2021.1.4,MacIntel,59.99520038
,,,,,,p,0.6116,0,56,56,56,1,56,images/pixabay_dog_003971.jpg,images/pixabay_dog_002596.jpg,Chenxi Liao,001,2021-06-21_16h10.48.497,Dog face experiment_fully sample_901-1225,2021.1.4,MacIntel,59.99520038
,,,,,,p,0.7588,0,57,57,57,1,57,images/pixabay_dog_003604.jpg,images/pixabay_dog_000525.jpg,Chenxi Liao,001,2021-06-21_16h10.48.497,Dog face experiment_fully sample_901-1225,2021.1.4,MacIntel,59.99520038
,,,,,,q,0.7938,0,58,58,58,1,58,images/flickr_dog_000913.jpg,images/pixabay_dog_001524.jpg,Chenxi Liao,001,2021-06-21_16h10.48.497,Dog face experiment_fully sample_901-1225,2021.1.4,MacIntel,59.99520038
,,,,,,p,0.6793,0,59,59,59,1,59,images/pixabay_dog_001255.jpg,images/pixabay_dog_001712.jpg,Chenxi Liao,001,2021-06-21_16h10.48.497,Dog face experiment_fully sample_901-1225,2021.1.4,MacIntel,59.99520038
,,,,,,q,0.8776,0,60,60,60,1,60,images/flickr_dog_001079.jpg,images/pixabay_dog_003238.jpg,Chenxi Liao,001,2021-06-21_16h10.48.497,Dog face experiment_fully sample_901-1225,2021.1.4,MacIntel,59.99520038
,,,,,,q,0.9821,0,61,61,61,1,61,images/pixabay_dog_003238.jpg,images/pixabay_dog_001255.jpg,Chenxi Liao,001,2021-06-21_16h10.48.497,Dog face experiment_fully sample_901-1225,2021.1.4,MacIntel,59.99520038
,,,,,,p,0.7597,0,62,62,62,1,62,images/pixabay_dog_000042.jpg,images/flickr_dog_000932.jpg,Chenxi Liao,001,2021-06-21_16h10.48.497,Dog face experiment_fully sample_901-1225,2021.1.4,MacIntel,59.99520038
,,,,,,q,0.799,0,63,63,63,1,63,images/flickr_dog_000932.jpg,images/flickr_dog_000279.jpg,Chenxi Liao,001,2021-06-21_16h10.48.497,Dog face experiment_fully sample_901-1225,2021.1.4,MacIntel,59.99520038
,,,,,,q,1.013,0,64,64,64,1,64,images/pixabay_dog_003971.jpg,images/pixabay_dog_003238.jpg,Chenxi Liao,001,2021-06-21_16h10.48.497,Dog face experiment_fully sample_901-1225,2021.1.4,MacIntel,59.99520038
,,,,,,p,0.9434,0,65,65,65,1,65,images/pixabay_dog_000042.jpg,images/pixabay_dog_003098.jpg,Chenxi Liao,001,2021-06-21_16h10.48.497,Dog face experiment_fully sample_901-1225,2021.1.4,MacIntel,59.99520038
,,,,,,p,1.1579,0,66,66,66,1,66,images/pixabay_dog_003971.jpg,images/pixabay_dog_002268.jpg,Chenxi Liao,001,2021-06-21_16h10.48.497,Dog face experiment_fully sample_901-1225,2021.1.4,MacIntel,59.99520038
,,,,,,p,0.6839,0,67,67,67,1,67,images/pixabay_dog_003971.jpg,images/flickr_dog_000932.jpg,Chenxi Liao,001,2021-06-21_16h10.48.497,Dog face experiment_fully sample_901-1225,2021.1.4,MacIntel,59.99520038
,,,,,,q,0.8526,0,68,68,68,1,68,images/flickr_dog_000266.jpg,images/pixabay_dog_001465.jpg,Chenxi Liao,001,2021-06-21_16h10.48.497,Dog face experiment_fully sample_901-1225,2021.1.4,MacIntel,59.99520038
,,,,,,p,1.012,0,69,69,69,1,69,images/flickr_dog_000932.jpg,images/pixabay_dog_003357.jpg,Chenxi Liao,001,2021-06-21_16h10.48.497,Dog face experiment_fully sample_901-1225,2021.1.4,MacIntel,59.99520038
,,,,,,q,0.7678,0,70,70,70,1,70,images/pixabay_dog_001150.jpg,images/flickr_dog_001107.jpg,Chenxi Liao,001,2021-06-21_16h10.48.497,Dog face experiment_fully sample_901-1225,2021.1.4,MacIntel,59.99520038
,,,,,,p,4.9202,0,71,71,71,1,71,images/flickr_dog_000266.jpg,images/pixabay_dog_001843.jpg,Chenxi Liao,001,2021-06-21_16h10.48.497,Dog face experiment_fully sample_901-1225,2021.1.4,MacIntel,59.99520038
,,,,,,q,4.0285,0,72,72,72,1,72,images/pixabay_dog_002360.jpg,images/pixabay_dog_000525.jpg,Chenxi Liao,001,2021-06-21_16h10.48.497,Dog face experiment_fully sample_901-1225,2021.1.4,MacIntel,59.99520038
,,,,,,q,0.7498,0,73,73,73,1,73,images/flickr_dog_000861.jpg,images/pixabay_dog_002282.jpg,Chenxi Liao,001,2021-06-21_16h10.48.497,Dog face experiment_fully sample_901-1225,2021.1.4,MacIntel,59.99520038
,,,,,,p,1.7778,0,74,74,74,1,74,images/pixabay_dog_000932.jpg,images/pixabay_dog_001524.jpg,Chenxi Liao,001,2021-06-21_16h10.48.497,Dog face experiment_fully sample_901-1225,2021.1.4,MacIntel,59.99520038
,,,,,,q,0.7632,0,75,75,75,1,75,images/flickr_dog_000201.jpg,images/flickr_dog_000232.jpg,Chenxi Liao,001,2021-06-21_16h10.48.497,Dog face experiment_fully sample_901-1225,2021.1.4,MacIntel,59.99520038
,,,,,,p,0.6759,0,76,76,76,1,76,images/pixabay_dog_000042.jpg,images/flickr_dog_000913.jpg,Chenxi Liao,001,2021-06-21_16h10.48.497,Dog face experiment_fully sample_901-1225,2021.1.4,MacIntel,59.99520038
,,,,,,p,0.7979,0,77,77,77,1,77,images/pixabay_dog_003310.jpg,images/pixabay_dog_001524.jpg,Chenxi Liao,001,2021-06-21_16h10.48.497,Dog face experiment_fully sample_901-1225,2021.1.4,MacIntel,59.99520038
,,,,,,q,0.6648,0,78,78,78,1,78,images/pixabay_dog_001150.jpg,images/pixabay_dog_003357.jpg,Chenxi Liao,001,2021-06-21_16h10.48.497,Dog face experiment_fully sample_901-1225,2021.1.4,MacIntel,59.99520038
,,,,,,p,0.7093,0,79,79,79,1,79,images/pixabay_dog_002282.jpg,images/flickr_dog_000194.jpg,Chenxi Liao,001,2021-06-21_16h10.48.497,Dog face experiment_fully sample_901-1225,2021.1.4,MacIntel,59.99520038
,,,,,,p,0.6649,0,80,80,80,1,80,images/flickr_dog_000566.jpg,images/flickr_dog_000201.jpg,Chenxi Liao,001,2021-06-21_16h10.48.497,Dog face experiment_fully sample_901-1225,2021.1.4,MacIntel,59.99520038
,,,,,,q,0.6945,0,81,81,81,1,81,images/flickr_dog_001079.jpg,images/pixabay_dog_001465.jpg,Chenxi Liao,001,2021-06-21_16h10.48.497,Dog face experiment_fully sample_901-1225,2021.1.4,MacIntel,59.99520038
,,,,,,p,0.7678,0,82,82,82,1,82,images/pixabay_dog_002596.jpg,images/pixabay_dog_003357.jpg,Chenxi Liao,001,2021-06-21_16h10.48.497,Dog face experiment_fully sample_901-1225,2021.1.4,MacIntel,59.99520038
,,,,,,p,0.7428,0,83,83,83,1,83,images/flickr_dog_000566.jpg,images/flickr_dog_000279.jpg,Chenxi Liao,001,2021-06-21_16h10.48.497,Dog face experiment_fully sample_901-1225,2021.1.4,MacIntel,59.99520038
,,,,,,q,0.5933,0,84,84,84,1,84,images/pixabay_dog_002793.jpg,images/pixabay_dog_001960.jpg,Chenxi Liao,001,2021-06-21_16h10.48.497,Dog face experiment_fully sample_901-1225,2021.1.4,MacIntel,59.99520038
,,,,,,p,0.5604,0,85,85,85,1,85,images/pixabay_dog_003310.jpg,images/pixabay_dog_000932.jpg,Chenxi Liao,001,2021-06-21_16h10.48.497,Dog face experiment_fully sample_901-1225,2021.1.4,MacIntel,59.99520038
,,,,,,q,0.6624,0,86,86,86,1,86,images/pixabay_dog_001150.jpg,images/pixabay_dog_001255.jpg,Chenxi Liao,001,2021-06-21_16h10.48.497,Dog face experiment_fully sample_901-1225,2021.1.4,MacIntel,59.99520038
,,,,,,q,0.9506,0,87,87,87,1,87,images/flickr_dog_000019.jpg,images/pixabay_dog_003727.jpg,Chenxi Liao,001,2021-06-21_16h10.48.497,Dog face experiment_fully sample_901-1225,2021.1.4,MacIntel,59.99520038
,,,,,,q,0.8273,0,88,88,88,1,88,images/pixabay_dog_000744.jpg,images/pixabay_dog_001255.jpg,Chenxi Liao,001,2021-06-21_16h10.48.497,Dog face experiment_fully sample_901-1225,2021.1.4,MacIntel,59.99520038
,,,,,,p,0.7635,0,89,89,89,1,89,images/flickr_dog_000232.jpg,images/pixabay_dog_003357.jpg,Chenxi Liao,001,2021-06-21_16h10.48.497,Dog face experiment_fully sample_901-1225,2021.1.4,MacIntel,59.99520038
,,,,,,p,0.7332,0,90,90,90,1,90,images/pixabay_dog_000042.jpg,images/pixabay_dog_001150.jpg,Chenxi Liao,001,2021-06-21_16h10.48.497,Dog face experiment_fully sample_901-1225,2021.1.4,MacIntel,59.99520038
,,,,,,p,0.8261,0,91,91,91,1,91,images/pixabay_dog_002744.jpg,images/pixabay_dog_000525.jpg,Chenxi Liao,001,2021-06-21_16h10.48.497,Dog face experiment_fully sample_901-1225,2021.1.4,MacIntel,59.99520038
,,,,,,p,0.9592,0,92,92,92,1,92,images/pixabay_dog_000914.jpg,images/pixabay_dog_000805.jpg,Chenxi Liao,001,2021-06-21_16h10.48.497,Dog face experiment_fully sample_901-1225,2021.1.4,MacIntel,59.99520038
,,,,,,p,0.9624,0,93,93,93,1,93,images/pixabay_dog_003098.jpg,images/pixabay_dog_001712.jpg,Chenxi Liao,001,2021-06-21_16h10.48.497,Dog face experiment_fully sample_901-1225,2021.1.4,MacIntel,59.99520038
,,,,,,p,0.7342,0,94,94,94,1,94,images/pixabay_dog_002861.jpg,images/flickr_dog_000266.jpg,Chenxi Liao,001,2021-06-21_16h10.48.497,Dog face experiment_fully sample_901-1225,2021.1.4,MacIntel,59.99520038
,,,,,,q,0.6636,0,95,95,95,1,95,images/flickr_dog_000261.jpg,images/flickr_dog_000019.jpg,Chenxi Liao,001,2021-06-21_16h10.48.497,Dog face experiment_fully sample_901-1225,2021.1.4,MacIntel,59.99520038
,,,,,,p,0.8599,0,96,96,96,1,96,images/pixabay_dog_001255.jpg,images/pixabay_dog_003357.jpg,Chenxi Liao,001,2021-06-21_16h10.48.497,Dog face experiment_fully sample_901-1225,2021.1.4,MacIntel,59.99520038
,,,,,,p,1.1435,0,97,97,97,1,97,images/flickr_dog_000194.jpg,images/pixabay_dog_001843.jpg,Chenxi Liao,001,2021-06-21_16h10.48.497,Dog face experiment_fully sample_901-1225,2021.1.4,MacIntel,59.99520038
,,,,,,p,0.6668,0,98,98,98,1,98,images/pixabay_dog_002360.jpg,images/flickr_dog_000266.jpg,Chenxi Liao,001,2021-06-21_16h10.48.497,Dog face experiment_fully sample_901-1225,2021.1.4,MacIntel,59.99520038
,,,,,,p,0.9625,0,99,99,99,1,99,images/pixabay_dog_000805.jpg,images/flickr_dog_000913.jpg,Chenxi Liao,001,2021-06-21_16h10.48.497,Dog face experiment_fully sample_901-1225,2021.1.4,MacIntel,59.99520038
,,,,,,p,0.8125,0,100,100,100,1,100,images/pixabay_dog_002899.jpg,images/pixabay_dog_001843.jpg,Chenxi Liao,001,2021-06-21_16h10.48.497,Dog face experiment_fully sample_901-1225,2021.1.4,MacIntel,59.99520038
,,,,,,p,0.9444,0,101,101,101,1,101,images/pixabay_dog_003098.jpg,images/pixabay_dog_002360.jpg,Chenxi Liao,001,2021-06-21_16h10.48.497,Dog face experiment_fully sample_901-1225,2021.1.4,MacIntel,59.99520038
,,,,,,p,0.7141,0,102,102,102,1,102,images/pixabay_dog_000952.jpg,images/flickr_dog_000913.jpg,Chenxi Liao,001,2021-06-21_16h10.48.497,Dog face experiment_fully sample_901-1225,2021.1.4,MacIntel,59.99520038
,,,,,,p,0.6173,0,103,103,103,1,103,images/pixabay_dog_001255.jpg,images/flickr_dog_000913.jpg,Chenxi Liao,001,2021-06-21_16h10.48.497,Dog face experiment_fully sample_901-1225,2021.1.4,MacIntel,59.99520038
,,,,,,q,0.7095,0,104,104,104,1,104,images/pixabay_dog_002360.jpg,images/pixabay_dog_002282.jpg,Chenxi Liao,001,2021-06-21_16h10.48.497,Dog face experiment_fully sample_901-1225,2021.1.4,MacIntel,59.99520038
,,,,,,q,0.7684,0,105,105,105,1,105,images/pixabay_dog_003098.jpg,images/pixabay_dog_002744.jpg,Chenxi Liao,001,2021-06-21_16h10.48.497,Dog face experiment_fully sample_901-1225,2021.1.4,MacIntel,59.99520038
,,,,,,p,0.8009,0,106,106,106,1,106,images/flickr_dog_000019.jpg,images/pixabay_dog_002596.jpg,Chenxi Liao,001,2021-06-21_16h10.48.497,Dog face experiment_fully sample_901-1225,2021.1.4,MacIntel,59.99520038
,,,,,,p,0.858,0,107,107,107,1,107,images/flickr_dog_000232.jpg,images/flickr_dog_001107.jpg,Chenxi Liao,001,2021-06-21_16h10.48.497,Dog face experiment_fully sample_901-1225,2021.1.4,MacIntel,59.99520038
,,,,,,p,0.8615,0,108,108,108,1,108,images/pixabay_dog_003829.jpg,images/flickr_dog_001107.jpg,Chenxi Liao,001,2021-06-21_16h10.48.497,Dog face experiment_fully sample_901-1225,2021.1.4,MacIntel,59.99520038
,,,,,,p,1.3616,0,109,109,109,1,109,images/pixabay_dog_000914.jpg,images/pixabay_dog_002793.jpg,Chenxi Liao,001,2021-06-21_16h10.48.497,Dog face experiment_fully sample_901-1225,2021.1.4,MacIntel,59.99520038
,,,,,,q,3.5559,0,110,110,110,1,110,images/flickr_dog_000019.jpg,images/pixabay_dog_002793.jpg,Chenxi Liao,001,2021-06-21_16h10.48.497,Dog face experiment_fully sample_901-1225,2021.1.4,MacIntel,59.99520038
,,,,,,q,1.36,0,111,111,111,1,111,images/pixabay_dog_000805.jpg,images/pixabay_dog_000952.jpg,Chenxi Liao,001,2021-06-21_16h10.48.497,Dog face experiment_fully sample_901-1225,2021.1.4,MacIntel,59.99520038
,,,,,,p,1.6103,0,112,112,112,1,112,images/flickr_dog_000019.jpg,images/pixabay_dog_003357.jpg,Chenxi Liao,001,2021-06-21_16h10.48.497,Dog face experiment_fully sample_901-1225,2021.1.4,MacIntel,59.99520038
,,,,,,p,1.3614,0,113,113,113,1,113,images/pixabay_dog_000805.jpg,images/flickr_dog_000194.jpg,Chenxi Liao,001,2021-06-21_16h10.48.497,Dog face experiment_fully sample_901-1225,2021.1.4,MacIntel,59.99520038
,,,,,,p,0.7852,0,114,114,114,1,114,images/pixabay_dog_000744.jpg,images/flickr_dog_000201.jpg,Chenxi Liao,001,2021-06-21_16h10.48.497,Dog face experiment_fully sample_901-1225,2021.1.4,MacIntel,59.99520038
,,,,,,p,0.7123,0,115,115,115,1,115,images/pixabay_dog_003238.jpg,images/flickr_dog_001107.jpg,Chenxi Liao,001,2021-06-21_16h10.48.497,Dog face experiment_fully sample_901-1225,2021.1.4,MacIntel,59.99520038
,,,,,,q,1.08,0,116,116,116,1,116,images/pixabay_dog_001150.jpg,images/pixabay_dog_000525.jpg,Chenxi Liao,001,2021-06-21_16h10.48.497,Dog face experiment_fully sample_901-1225,2021.1.4,MacIntel,59.99520038
,,,,,,p,0.733,0,117,117,117,1,117,images/flickr_dog_000083.jpg,images/pixabay_dog_003859.jpg,Chenxi Liao,001,2021-06-21_16h10.48.497,Dog face experiment_fully sample_901-1225,2021.1.4,MacIntel,59.99520038
,,,,,,p,0.7431,0,118,118,118,1,118,images/pixabay_dog_002649.jpg,images/pixabay_dog_002989.jpg,Chenxi Liao,001,2021-06-21_16h10.48.497,Dog face experiment_fully sample_901-1225,2021.1.4,MacIntel,59.99520038
,,,,,,q,0.8652,0,119,119,119,1,119,images/pixabay_dog_002649.jpg,images/pixabay_dog_003604.jpg,Chenxi Liao,001,2021-06-21_16h10.48.497,Dog face experiment_fully sample_901-1225,2021.1.4,MacIntel,59.99520038
,,,,,,p,0.9163,0,120,120,120,1,120,images/pixabay_dog_003098.jpg,images/pixabay_dog_001524.jpg,Chenxi Liao,001,2021-06-21_16h10.48.497,Dog face experiment_fully sample_901-1225,2021.1.4,MacIntel,59.99520038
,,,,,,q,0.7213,0,121,121,121,1,121,images/pixabay_dog_003098.jpg,images/pixabay_dog_003604.jpg,Chenxi Liao,001,2021-06-21_16h10.48.497,Dog face experiment_fully sample_901-1225,2021.1.4,MacIntel,59.99520038
,,,,,,p,0.7594,0,122,122,122,1,122,images/pixabay_dog_003310.jpg,images/pixabay_dog_000825.jpg,Chenxi Liao,001,2021-06-21_16h10.48.497,Dog face experiment_fully sample_901-1225,2021.1.4,MacIntel,59.99520038
,,,,,,q,0.8651,0,123,123,123,1,123,images/pixabay_dog_002861.jpg,images/pixabay_dog_003310.jpg,Chenxi Liao,001,2021-06-21_16h10.48.497,Dog face experiment_fully sample_901-1225,2021.1.4,MacIntel,59.99520038
,,,,,,p,1.2246,0,124,124,124,1,124,images/pixabay_dog_003098.jpg,images/pixabay_dog_000914.jpg,Chenxi Liao,001,2021-06-21_16h10.48.497,Dog face experiment_fully sample_901-1225,2021.1.4,MacIntel,59.99520038
,,,,,,q,0.96,0,125,125,125,1,125,images/pixabay_dog_002360.jpg,images/pixabay_dog_003727.jpg,Chenxi Liao,001,2021-06-21_16h10.48.497,Dog face experiment_fully sample_901-1225,2021.1.4,MacIntel,59.99520038
,,,,,,q,0.9777,0,126,126,126,1,126,images/pixabay_dog_002899.jpg,images/pixabay_dog_000932.jpg,Chenxi Liao,001,2021-06-21_16h10.48.497,Dog face experiment_fully sample_901-1225,2021.1.4,MacIntel,59.99520038
,,,,,,q,0.8101,0,127,127,127,1,127,images/flickr_dog_001079.jpg,images/pixabay_dog_000744.jpg,Chenxi Liao,001,2021-06-21_16h10.48.497,Dog face experiment_fully sample_901-1225,2021.1.4,MacIntel,59.99520038
,,,,,,q,0.8191,0,128,128,128,1,128,images/pixabay_dog_002360.jpg,images/pixabay_dog_002744.jpg,Chenxi Liao,001,2021-06-21_16h10.48.497,Dog face experiment_fully sample_901-1225,2021.1.4,MacIntel,59.99520038
,,,,,,q,1.5112,0,129,129,129,1,129,images/flickr_dog_000201.jpg,images/pixabay_dog_003604.jpg,Chenxi Liao,001,2021-06-21_16h10.48.497,Dog face experiment_fully sample_901-1225,2021.1.4,MacIntel,59.99520038
,,,,,,p,1.1269,0,130,130,130,1,130,images/pixabay_dog_003238.jpg,images/flickr_dog_000279.jpg,Chenxi Liao,001,2021-06-21_16h10.48.497,Dog face experiment_fully sample_901-1225,2021.1.4,MacIntel,59.99520038
,,,,,,p,1.3323,0,131,131,131,1,131,images/flickr_dog_000279.jpg,images/pixabay_dog_001465.jpg,Chenxi Liao,001,2021-06-21_16h10.48.497,Dog face experiment_fully sample_901-1225,2021.1.4,MacIntel,59.99520038
,,,,,,q,1.2598,0,132,132,132,1,132,images/pixabay_dog_000744.jpg,images/pixabay_dog_000825.jpg,Chenxi Liao,001,2021-06-21_16h10.48.497,Dog face experiment_fully sample_901-1225,2021.1.4,MacIntel,59.99520038
,,,,,,p,1.496,0,133,133,133,1,133,images/flickr_dog_000566.jpg,images/pixabay_dog_002596.jpg,Chenxi Liao,001,2021-06-21_16h10.48.497,Dog face experiment_fully sample_901-1225,2021.1.4,MacIntel,59.99520038
,,,,,,p,1.1189,0,134,134,134,1,134,images/pixabay_dog_001255.jpg,images/flickr_dog_000083.jpg,Chenxi Liao,001,2021-06-21_16h10.48.497,Dog face experiment_fully sample_901-1225,2021.1.4,MacIntel,59.99520038
,,,,,,q,0.7583,0,135,135,135,1,135,images/flickr_dog_000083.jpg,images/pixabay_dog_003604.jpg,Chenxi Liao,001,2021-06-21_16h10.48.497,Dog face experiment_fully sample_901-1225,2021.1.4,MacIntel,59.99520038
,,,,,,p,0.8652,0,136,136,136,1,136,images/pixabay_dog_003305.jpg,images/flickr_dog_001107.jpg,Chenxi Liao,001,2021-06-21_16h10.48.497,Dog face experiment_fully sample_901-1225,2021.1.4,MacIntel,59.99520038
,,,,,,p,0.8533,0,137,137,137,1,137,images/pixabay_dog_000853.jpg,images/flickr_dog_001107.jpg,Chenxi Liao,001,2021-06-21_16h10.48.497,Dog face experiment_fully sample_901-1225,2021.1.4,MacIntel,59.99520038
,,,,,,p,0.795,0,138,138,138,1,138,images/pixabay_dog_003098.jpg,images/pixabay_dog_001960.jpg,Chenxi Liao,001,2021-06-21_16h10.48.497,Dog face experiment_fully sample_901-1225,2021.1.4,MacIntel,59.99520038
,,,,,,p,1.0311,0,139,139,139,1,139,images/pixabay_dog_001960.jpg,images/pixabay_dog_001465.jpg,Chenxi Liao,001,2021-06-21_16h10.48.497,Dog face experiment_fully sample_901-1225,2021.1.4,MacIntel,59.99520038
,,,,,,q,0.799,0,140,140,140,1,140,images/flickr_dog_000861.jpg,images/pixabay_dog_003727.jpg,Chenxi Liao,001,2021-06-21_16h10.48.497,Dog face experiment_fully sample_901-1225,2021.1.4,MacIntel,59.99520038
,,,,,,q,1.2087,0,141,141,141,1,141,images/pixabay_dog_002861.jpg,images/pixabay_dog_001960.jpg,Chenxi Liao,001,2021-06-21_16h10.48.497,Dog face experiment_fully sample_901-1225,2021.1.4,MacIntel,59.99520038
,,,,,,p,0.7938,0,142,142,142,1,142,images/pixabay_dog_000042.jpg,images/flickr_dog_000083.jpg,Chenxi Liao,001,2021-06-21_16h10.48.497,Dog face experiment_fully sample_901-1225,2021.1.4,MacIntel,59.99520038
,,,,,,p,1.0355,0,143,143,143,1,143,images/pixabay_dog_001255.jpg,images/pixabay_dog_003604.jpg,Chenxi Liao,001,2021-06-21_16h10.48.497,Dog face experiment_fully sample_901-1225,2021.1.4,MacIntel,59.99520038
,,,,,,q,0.9265,0,144,144,144,1,144,images/flickr_dog_000201.jpg,images/pixabay_dog_000805.jpg,Chenxi Liao,001,2021-06-21_16h10.48.497,Dog face experiment_fully sample_901-1225,2021.1.4,MacIntel,59.99520038
,,,,,,q,0.93,0,145,145,145,1,145,images/flickr_dog_001079.jpg,images/pixabay_dog_002360.jpg,Chenxi Liao,001,2021-06-21_16h10.48.497,Dog face experiment_fully sample_901-1225,2021.1.4,MacIntel,59.99520038
,,,,,,p,1.027,0,146,146,146,1,146,images/pixabay_dog_003098.jpg,images/pixabay_dog_002268.jpg,Chenxi Liao,001,2021-06-21_16h10.48.497,Dog face experiment_fully sample_901-1225,2021.1.4,MacIntel,59.99520038
,,,,,,q,0.8666,0,147,147,147,1,147,images/pixabay_dog_000825.jpg,images/pixabay_dog_002596.jpg,Chenxi Liao,001,2021-06-21_16h10.48.497,Dog face experiment_fully sample_901-1225,2021.1.4,MacIntel,59.99520038
,,,,,,p,0.7475,0,148,148,148,1,148,images/pixabay_dog_003971.jpg,images/pixabay_dog_001150.jpg,Chenxi Liao,001,2021-06-21_16h10.48.497,Dog face experiment_fully sample_901-1225,2021.1.4,MacIntel,59.99520038
,,,,,,p,2.7029,0,149,149,149,1,149,images/pixabay_dog_002282.jpg,images/flickr_dog_000913.jpg,Chenxi Liao,001,2021-06-21_16h10.48.497,Dog face experiment_fully sample_901-1225,2021.1.4,MacIntel,59.99520038
,,,,,,q,2.4762,0,150,150,150,1,150,images/flickr_dog_000019.jpg,images/pixabay_dog_000853.jpg,Chenxi Liao,001,2021-06-21_16h10.48.497,Dog face experiment_fully sample_901-1225,2021.1.4,MacIntel,59.99520038
,,,,,,p,0.977,0,151,151,151,1,151,images/pixabay_dog_003238.jpg,images/pixabay_dog_001524.jpg,Chenxi Liao,001,2021-06-21_16h10.48.497,Dog face experiment_fully sample_901-1225,2021.1.4,MacIntel,59.99520038
,,,,,,p,0.7494,0,152,152,152,1,152,images/flickr_dog_000932.jpg,images/flickr_dog_001107.jpg,Chenxi Liao,001,2021-06-21_16h10.48.497,Dog face experiment_fully sample_901-1225,2021.1.4,MacIntel,59.99520038
,,,,,,q,0.744,0,153,153,153,1,153,images/flickr_dog_001079.jpg,images/pixabay_dog_000853.jpg,Chenxi Liao,001,2021-06-21_16h10.48.497,Dog face experiment_fully sample_901-1225,2021.1.4,MacIntel,59.99520038
,,,,,,p,0.9983,0,154,154,154,1,154,images/pixabay_dog_002744.jpg,images/flickr_dog_000201.jpg,Chenxi Liao,001,2021-06-21_16h10.48.497,Dog face experiment_fully sample_901-1225,2021.1.4,MacIntel,59.99520038
,,,,,,p,0.7098,0,155,155,155,1,155,images/pixabay_dog_000525.jpg,images/pixabay_dog_003357.jpg,Chenxi Liao,001,2021-06-21_16h10.48.497,Dog face experiment_fully sample_901-1225,2021.1.4,MacIntel,59.99520038
,,,,,,q,1.9674,0,156,156,156,1,156,images/pixabay_dog_003971.jpg,images/pixabay_dog_000952.jpg,Chenxi Liao,001,2021-06-21_16h10.48.497,Dog face experiment_fully sample_901-1225,2021.1.4,MacIntel,59.99520038
,,,,,,q,0.6774,0,157,157,157,1,157,images/pixabay_dog_003305.jpg,images/pixabay_dog_003604.jpg,Chenxi Liao,001,2021-06-21_16h10.48.497,Dog face experiment_fully sample_901-1225,2021.1.4,MacIntel,59.99520038
,,,,,,q,0.763,0,158,158,158,1,158,images/pixabay_dog_001150.jpg,images/pixabay_dog_000914.jpg,Chenxi Liao,001,2021-06-21_16h10.48.497,Dog face experiment_fully sample_901-1225,2021.1.4,MacIntel,59.99520038
,,,,,,q,0.947,0,159,159,159,1,159,images/flickr_dog_000261.jpg,images/pixabay_dog_000525.jpg,Chenxi Liao,001,2021-06-21_16h10.48.497,Dog face experiment_fully sample_901-1225,2021.1.4,MacIntel,59.99520038
,,,,,,q,1.3344,0,160,160,160,1,160,images/pixabay_dog_000744.jpg,images/pixabay_dog_003310.jpg,Chenxi Liao,001,2021-06-21_16h10.48.497,Dog face experiment_fully sample_901-1225,2021.1.4,MacIntel,59.99520038
,,,,,,q,0.98,0,161,161,161,1,161,images/pixabay_dog_000744.jpg,images/flickr_dog_000083.jpg,Chenxi Liao,001,2021-06-21_16h10.48.497,Dog face experiment_fully sample_901-1225,2021.1.4,MacIntel,59.99520038
,,,,,,q,1.0952,0,162,162,162,1,162,images/flickr_dog_000266.jpg,images/pixabay_dog_002793.jpg,Chenxi Liao,001,2021-06-21_16h10.48.497,Dog face experiment_fully sample_901-1225,2021.1.4,MacIntel,59.99520038
,,,,,,p,0.9793,0,163,163,163,1,163,images/pixabay_dog_003098.jpg,images/pixabay_dog_001465.jpg,Chenxi Liao,001,2021-06-21_16h10.48.497,Dog face experiment_fully sample_901-1225,2021.1.4,MacIntel,59.99520038
,,,,,,p,0.7695,0,164,164,164,1,164,images/pixabay_dog_002360.jpg,images/flickr_dog_000913.jpg,Chenxi Liao,001,2021-06-21_16h10.48.497,Dog face experiment_fully sample_901-1225,2021.1.4,MacIntel,59.99520038
,,,,,,q,0.743,0,165,165,165,1,165,images/pixabay_dog_001150.jpg,images/pixabay_dog_001465.jpg,Chenxi Liao,001,2021-06-21_16h10.48.497,Dog face experiment_fully sample_901-1225,2021.1.4,MacIntel,59.99520038
,,,,,,p,0.8189,0,166,166,166,1,166,images/pixabay_dog_002989.jpg,images/pixabay_dog_003859.jpg,Chenxi Liao,001,2021-06-21_16h10.48.497,Dog face experiment_fully sample_901-1225,2021.1.4,MacIntel,59.99520038
,,,,,,p,1.96,0,167,167,167,1,167,images/pixabay_dog_002268.jpg,images/pixabay_dog_002861.jpg,Chenxi Liao,001,2021-06-21_16h10.48.497,Dog face experiment_fully sample_901-1225,2021.1.4,MacIntel,59.99520038
,,,,,,p,0.8434,0,168,168,168,1,168,images/flickr_dog_000566.jpg,images/pixabay_dog_000744.jpg,Chenxi Liao,001,2021-06-21_16h10.48.497,Dog face experiment_fully sample_901-1225,2021.1.4,MacIntel,59.99520038
,,,,,,q,1.2773,0,169,169,169,1,169,images/flickr_dog_001107.jpg,images/pixabay_dog_003357.jpg,Chenxi Liao,001,2021-06-21_16h10.48.497,Dog face experiment_fully sample_901-1225,2021.1.4,MacIntel,59.99520038
,,,,,,q,1.41,0,170,170,170,1,170,images/pixabay_dog_000805.jpg,images/pixabay_dog_000932.jpg,Chenxi Liao,001,2021-06-21_16h10.48.497,Dog face experiment_fully sample_901-1225,2021.1.4,MacIntel,59.99520038
,,,,,,q,0.8318,0,171,171,171,1,171,images/flickr_dog_001079.jpg,images/flickr_dog_000279.jpg,Chenxi Liao,001,2021-06-21_16h10.48.497,Dog face experiment_fully sample_901-1225,2021.1.4,MacIntel,59.99520038
,,,,,,p,0.676,0,172,172,172,1,172,images/pixabay_dog_003971.jpg,images/pixabay_dog_001843.jpg,Chenxi Liao,001,2021-06-21_16h10.48.497,Dog face experiment_fully sample_901-1225,2021.1.4,MacIntel,59.99520038
,,,,,,q,2.0193,0,173,173,173,1,173,images/flickr_dog_000932.jpg,images/flickr_dog_000083.jpg,Chenxi Liao,001,2021-06-21_16h10.48.497,Dog face experiment_fully sample_901-1225,2021.1.4,MacIntel,59.99520038
,,,,,,p,1.9934,0,174,174,174,1,174,images/pixabay_dog_002268.jpg,images/flickr_dog_000201.jpg,Chenxi Liao,001,2021-06-21_16h10.48.497,Dog face experiment_fully sample_901-1225,2021.1.4,MacIntel,59.99520038
,,,,,,q,1.7808,0,175,175,175,1,175,images/flickr_dog_000932.jpg,images/pixabay_dog_003727.jpg,Chenxi Liao,001,2021-06-21_16h10.48.497,Dog face experiment_fully sample_901-1225,2021.1.4,MacIntel,59.99520038
,,,,,,p,1.0265,0,176,176,176,1,176,images/pixabay_dog_000932.jpg,images/pixabay_dog_002596.jpg,Chenxi Liao,001,2021-06-21_16h10.48.497,Dog face experiment_fully sample_901-1225,2021.1.4,MacIntel,59.99520038
,,,,,,q,1.213,0,177,177,177,1,177,images/flickr_dog_000261.jpg,images/pixabay_dog_003727.jpg,Chenxi Liao,001,2021-06-21_16h10.48.497,Dog face experiment_fully sample_901-1225,2021.1.4,MacIntel,59.99520038
,,,,,,p,1.2113,0,178,178,178,1,178,images/flickr_dog_000932.jpg,images/pixabay_dog_000525.jpg,Chenxi Liao,001,2021-06-21_16h10.48.497,Dog face experiment_fully sample_901-1225,2021.1.4,MacIntel,59.99520038
,,,,,,q,3.553,0,179,179,179,1,179,images/flickr_dog_000232.jpg,images/pixabay_dog_003310.jpg,Chenxi Liao,001,2021-06-21_16h10.48.497,Dog face experiment_fully sample_901-1225,2021.1.4,MacIntel,59.99520038
,,,,,,q,0.8088,0,180,180,180,1,180,images/flickr_dog_001079.jpg,images/flickr_dog_000932.jpg,Chenxi Liao,001,2021-06-21_16h10.48.497,Dog face experiment_fully sample_901-1225,2021.1.4,MacIntel,59.99520038
,,,,,,q,0.6985,0,181,181,181,1,181,images/pixabay_dog_003971.jpg,images/pixabay_dog_001255.jpg,Chenxi Liao,001,2021-06-21_16h10.48.497,Dog face experiment_fully sample_901-1225,2021.1.4,MacIntel,59.99520038
,,,,,,p,0.6652,0,182,182,182,1,182,images/pixabay_dog_000853.jpg,images/pixabay_dog_001843.jpg,Chenxi Liao,001,2021-06-21_16h10.48.497,Dog face experiment_fully sample_901-1225,2021.1.4,MacIntel,59.99520038
,,,,,,q,0.7347,0,183,183,183,1,183,images/pixabay_dog_000744.jpg,images/pixabay_dog_000853.jpg,Chenxi Liao,001,2021-06-21_16h10.48.497,Dog face experiment_fully sample_901-1225,2021.1.4,MacIntel,59.99520038
,,,,,,p,0.6964,0,184,184,184,1,184,images/pixabay_dog_000042.jpg,images/pixabay_dog_002744.jpg,Chenxi Liao,001,2021-06-21_16h10.48.497,Dog face experiment_fully sample_901-1225,2021.1.4,MacIntel,59.99520038
,,,,,,p,0.7787,0,185,185,185,1,185,images/pixabay_dog_000042.jpg,images/pixabay_dog_000914.jpg,Chenxi Liao,001,2021-06-21_16h10.48.497,Dog face experiment_fully sample_901-1225,2021.1.4,MacIntel,59.99520038
,,,,,,q,0.8773,0,186,186,186,1,186,images/pixabay_dog_002360.jpg,images/pixabay_dog_000805.jpg,Chenxi Liao,001,2021-06-21_16h10.48.497,Dog face experiment_fully sample_901-1225,2021.1.4,MacIntel,59.99520038
,,,,,,p,0.6944,0,187,187,187,1,187,images/pixabay_dog_000042.jpg,images/flickr_dog_000019.jpg,Chenxi Liao,001,2021-06-21_16h10.48.497,Dog face experiment_fully sample_901-1225,2021.1.4,MacIntel,59.99520038
,,,,,,q,0.8771,0,188,188,188,1,188,images/flickr_dog_000232.jpg,images/pixabay_dog_000952.jpg,Chenxi Liao,001,2021-06-21_16h10.48.497,Dog face experiment_fully sample_901-1225,2021.1.4,MacIntel,59.99520038
,,,,,,p,0.6961,0,189,189,189,1,189,images/pixabay_dog_001255.jpg,images/pixabay_dog_001843.jpg,Chenxi Liao,001,2021-06-21_16h10.48.497,Dog face experiment_fully sample_901-1225,2021.1.4,MacIntel,59.99520038
,,,,,,q,0.831,0,190,190,190,1,190,images/pixabay_dog_002861.jpg,images/pixabay_dog_002282.jpg,Chenxi Liao,001,2021-06-21_16h10.48.497,Dog face experiment_fully sample_901-1225,2021.1.4,MacIntel,59.99520038
,,,,,,q,0.9933,0,191,191,191,1,191,images/pixabay_dog_002899.jpg,images/pixabay_dog_002649.jpg,Chenxi Liao,001,2021-06-21_16h10.48.497,Dog face experiment_fully sample_901-1225,2021.1.4,MacIntel,59.99520038
,,,,,,q,0.652,0,192,192,192,1,192,images/flickr_dog_000261.jpg,images/flickr_dog_000913.jpg,Chenxi Liao,001,2021-06-21_16h10.48.497,Dog face experiment_fully sample_901-1225,2021.1.4,MacIntel,59.99520038
,,,,,,q,0.6529,0,193,193,193,1,193,images/flickr_dog_000261.jpg,images/pixabay_dog_000952.jpg,Chenxi Liao,001,2021-06-21_16h10.48.497,Dog face experiment_fully sample_901-1225,2021.1.4,MacIntel,59.99520038
,,,,,,p,1.0087,0,194,194,194,1,194,images/flickr_dog_001079.jpg,images/flickr_dog_000019.jpg,Chenxi Liao,001,2021-06-21_16h10.48.497,Dog face experiment_fully sample_901-1225,2021.1.4,MacIntel,59.99520038
,,,,,,p,1.0127,0,195,195,195,1,195,images/pixabay_dog_002282.jpg,images/pixabay_dog_000952.jpg,Chenxi Liao,001,2021-06-21_16h10.48.497,Dog face experiment_fully sample_901-1225,2021.1.4,MacIntel,59.99520038
,,,,,,p,0.7916,0,196,196,196,1,196,images/pixabay_dog_002899.jpg,images/flickr_dog_000913.jpg,Chenxi Liao,001,2021-06-21_16h10.48.497,Dog face experiment_fully sample_901-1225,2021.1.4,MacIntel,59.99520038
,,,,,,q,0.7094,0,197,197,197,1,197,images/pixabay_dog_001150.jpg,images/pixabay_dog_000805.jpg,Chenxi Liao,001,2021-06-21_16h10.48.497,Dog face experiment_fully sample_901-1225,2021.1.4,MacIntel,59.99520038
,,,,,,q,0.9171,0,198,198,198,1,198,images/pixabay_dog_001150.jpg,images/pixabay_dog_001712.jpg,Chenxi Liao,001,2021-06-21_16h10.48.497,Dog face experiment_fully sample_901-1225,2021.1.4,MacIntel,59.99520038
,,,,,,q,0.663,0,199,199,199,1,199,images/pixabay_dog_001150.jpg,images/pixabay_dog_002649.jpg,Chenxi Liao,001,2021-06-21_16h10.48.497,Dog face experiment_fully sample_901-1225,2021.1.4,MacIntel,59.99520038
,,,,,,p,0.6772,0,200,200,200,1,200,images/pixabay_dog_003727.jpg,images/pixabay_dog_000932.jpg,Chenxi Liao,001,2021-06-21_16h10.48.497,Dog face experiment_fully sample_901-1225,2021.1.4,MacIntel,59.99520038
,,,,,,p,0.7594,0,201,201,201,1,201,images/pixabay_dog_003310.jpg,images/pixabay_dog_002989.jpg,Chenxi Liao,001,2021-06-21_16h10.48.497,Dog face experiment_fully sample_901-1225,2021.1.4,MacIntel,59.99520038
,,,,,,p,3.4818,0,202,202,202,1,202,images/pixabay_dog_002268.jpg,images/pixabay_dog_002649.jpg,Chenxi Liao,001,2021-06-21_16h10.48.497,Dog face experiment_fully sample_901-1225,2021.1.4,MacIntel,59.99520038
,,,,,,p,0.9109,0,203,203,203,1,203,images/pixabay_dog_003727.jpg,images/pixabay_dog_001465.jpg,Chenxi Liao,001,2021-06-21_16h10.48.497,Dog face experiment_fully sample_901-1225,2021.1.4,MacIntel,59.99520038
,,,,,,q,1.2773,0,204,204,204,1,204,images/pixabay_dog_003310.jpg,images/pixabay_dog_001960.jpg,Chenxi Liao,001,2021-06-21_16h10.48.497,Dog face experiment_fully sample_901-1225,2021.1.4,MacIntel,59.99520038
,,,,,,p,0.9266,0,205,205,205,1,205,images/pixabay_dog_002744.jpg,images/pixabay_dog_001465.jpg,Chenxi Liao,001,2021-06-21_16h10.48.497,Dog face experiment_fully sample_901-1225,2021.1.4,MacIntel,59.99520038
,,,,,,p,0.9612,0,206,206,206,1,206,images/pixabay_dog_003098.jpg,images/flickr_dog_000261.jpg,Chenxi Liao,001,2021-06-21_16h10.48.497,Dog face experiment_fully sample_901-1225,2021.1.4,MacIntel,59.99520038
,,,,,,p,1.0093,0,207,207,207,1,207,images/pixabay_dog_002268.jpg,images/pixabay_dog_003310.jpg,Chenxi Liao,001,2021-06-21_16h10.48.497,Dog face experiment_fully sample_901-1225,2021.1.4,MacIntel,59.99520038
,,,,,,q,1.161,0,208,208,208,1,208,images/flickr_dog_000566.jpg,images/pixabay_dog_002649.jpg,Chenxi Liao,001,2021-06-21_16h10.48.497,Dog face experiment_fully sample_901-1225,2021.1.4,MacIntel,59.99520038
,,,,,,p,1.603,0,209,209,209,1,209,images/pixabay_dog_000042.jpg,images/flickr_dog_000232.jpg,Chenxi Liao,001,2021-06-21_16h10.48.497,Dog face experiment_fully sample_901-1225,2021.1.4,MacIntel,59.99520038
,,,,,,p,0.7983,0,210,210,210,1,210,images/pixabay_dog_002649.jpg,images/pixabay_dog_003829.jpg,Chenxi Liao,001,2021-06-21_16h10.48.497,Dog face experiment_fully sample_901-1225,2021.1.4,MacIntel,59.99520038
,,,,,,q,1.2267,0,211,211,211,1,211,images/pixabay_dog_002899.jpg,images/pixabay_dog_000744.jpg,Chenxi Liao,001,2021-06-21_16h10.48.497,Dog face experiment_fully sample_901-1225,2021.1.4,MacIntel,59.99520038
,,,,,,p,1.0768,0,212,212,212,1,212,images/pixabay_dog_003238.jpg,images/pixabay_dog_001712.jpg,Chenxi Liao,001,2021-06-21_16h10.48.497,Dog face experiment_fully sample_901-1225,2021.1.4,MacIntel,59.99520038
,,,,,,p,0.6275,0,213,213,213,1,213,images/pixabay_dog_000853.jpg,images/pixabay_dog_003357.jpg,Chenxi Liao,001,2021-06-21_16h10.48.497,Dog face experiment_fully sample_901-1225,2021.1.4,MacIntel,59.99520038
,,,,,,p,0.9604,0,214,214,214,1,214,images/pixabay_dog_000042.jpg,images/pixabay_dog_002596.jpg,Chenxi Liao,001,2021-06-21_16h10.48.497,Dog face experiment_fully sample_901-1225,2021.1.4,MacIntel,59.99520038
,,,,,,p,0.7582,0,215,215,215,1,215,images/pixabay_dog_003604.jpg,images/pixabay_dog_001524.jpg,Chenxi Liao,001,2021-06-21_16h10.48.497,Dog face experiment_fully sample_901-1225,2021.1.4,MacIntel,59.99520038
,,,,,,p,1.4771,0,216,216,216,1,216,images/pixabay_dog_002861.jpg,images/pixabay_dog_000825.jpg,Chenxi Liao,001,2021-06-21_16h10.48.497,Dog face experiment_fully sample_901-1225,2021.1.4,MacIntel,59.99520038
,,,,,,p,0.7441,0,217,217,217,1,217,images/pixabay_dog_000914.jpg,images/pixabay_dog_002989.jpg,Chenxi Liao,001,2021-06-21_16h10.48.497,Dog face experiment_fully sample_901-1225,2021.1.4,MacIntel,59.99520038
,,,,,,p,1.7479,0,218,218,218,1,218,images/pixabay_dog_003727.jpg,images/pixabay_dog_002282.jpg,Chenxi Liao,001,2021-06-21_16h10.48.497,Dog face experiment_fully sample_901-1225,2021.1.4,MacIntel,59.99520038
,,,,,,p,0.9653,0,219,219,219,1,219,images/pixabay_dog_001255.jpg,images/pixabay_dog_000952.jpg,Chenxi Liao,001,2021-06-21_16h10.48.497,Dog face experiment_fully sample_901-1225,2021.1.4,MacIntel,59.99520038
,,,,,,p,0.7338,0,220,220,220,1,220,images/pixabay_dog_002360.jpg,images/flickr_dog_000019.jpg,Chenxi Liao,001,2021-06-21_16h10.48.497,Dog face experiment_fully sample_901-1225,2021.1.4,MacIntel,59.99520038
,,,,,,q,1.5079,0,221,221,221,1,221,images/pixabay_dog_002268.jpg,images/pixabay_dog_003829.jpg,Chenxi Liao,001,2021-06-21_16h10.48.497,Dog face experiment_fully sample_901-1225,2021.1.4,MacIntel,59.99520038
,,,,,,q,0.7451,0,222,222,222,1,222,images/pixabay_dog_003305.jpg,images/pixabay_dog_002282.jpg,Chenxi Liao,001,2021-06-21_16h10.48.497,Dog face experiment_fully sample_901-1225,2021.1.4,MacIntel,59.99520038
,,,,,,p,0.7436,0,223,223,223,1,223,images/pixabay_dog_001712.jpg,images/pixabay_dog_000525.jpg,Chenxi Liao,001,2021-06-21_16h10.48.497,Dog face experiment_fully sample_901-1225,2021.1.4,MacIntel,59.99520038
,,,,,,p,0.8362,0,224,224,224,1,224,images/pixabay_dog_003098.jpg,images/pixabay_dog_003859.jpg,Chenxi Liao,001,2021-06-21_16h10.48.497,Dog face experiment_fully sample_901-1225,2021.1.4,MacIntel,59.99520038
,,,,,,q,0.96,0,225,225,225,1,225,images/pixabay_dog_002899.jpg,images/pixabay_dog_003829.jpg,Chenxi Liao,001,2021-06-21_16h10.48.497,Dog face experiment_fully sample_901-1225,2021.1.4,MacIntel,59.99520038
,,,,,,p,0.8973,0,226,226,226,1,226,images/pixabay_dog_000042.jpg,images/pixabay_dog_002899.jpg,Chenxi Liao,001,2021-06-21_16h10.48.497,Dog face experiment_fully sample_901-1225,2021.1.4,MacIntel,59.99520038
,,,,,,q,1.6363,0,227,227,227,1,227,images/flickr_dog_000861.jpg,images/pixabay_dog_002744.jpg,Chenxi Liao,001,2021-06-21_16h10.48.497,Dog face experiment_fully sample_901-1225,2021.1.4,MacIntel,59.99520038
,,,,,,p,1.5785,0,228,228,228,1,228,images/pixabay_dog_000825.jpg,images/pixabay_dog_002989.jpg,Chenxi Liao,001,2021-06-21_16h10.48.497,Dog face experiment_fully sample_901-1225,2021.1.4,MacIntel,59.99520038
,,,,,,p,0.6814,0,229,229,229,1,229,images/pixabay_dog_003971.jpg,images/flickr_dog_000266.jpg,Chenxi Liao,001,2021-06-21_16h10.48.497,Dog face experiment_fully sample_901-1225,2021.1.4,MacIntel,59.99520038
,,,,,,p,0.644,0,230,230,230,1,230,images/pixabay_dog_000042.jpg,images/flickr_dog_001079.jpg,Chenxi Liao,001,2021-06-21_16h10.48.497,Dog face experiment_fully sample_901-1225,2021.1.4,MacIntel,59.99520038
,,,,,,p,0.8653,0,231,231,231,1,231,images/flickr_dog_000019.jpg,images/pixabay_dog_000805.jpg,Chenxi Liao,001,2021-06-21_16h10.48.497,Dog face experiment_fully sample_901-1225,2021.1.4,MacIntel,59.99520038
,,,,,,p,0.6771,0,232,232,232,1,232,images/pixabay_dog_002282.jpg,images/pixabay_dog_001843.jpg,Chenxi Liao,001,2021-06-21_16h10.48.497,Dog face experiment_fully sample_901-1225,2021.1.4,MacIntel,59.99520038
,,,,,,q,0.8765,0,233,233,233,1,233,images/pixabay_dog_000853.jpg,images/pixabay_dog_000932.jpg,Chenxi Liao,001,2021-06-21_16h10.48.497,Dog face experiment_fully sample_901-1225,2021.1.4,MacIntel,59.99520038
,,,,,,q,0.75,0,234,234,234,1,234,images/flickr_dog_000083.jpg,images/pixabay_dog_003829.jpg,Chenxi Liao,001,2021-06-21_16h10.48.497,Dog face experiment_fully sample_901-1225,2021.1.4,MacIntel,59.99520038
,,,,,,p,0.7102,0,235,235,235,1,235,images/pixabay_dog_002793.jpg,images/pixabay_dog_003357.jpg,Chenxi Liao,001,2021-06-21_16h10.48.497,Dog face experiment_fully sample_901-1225,2021.1.4,MacIntel,59.99520038
,,,,,,q,0.7623,0,236,236,236,1,236,images/pixabay_dog_001150.jpg,images/pixabay_dog_000932.jpg,Chenxi Liao,001,2021-06-21_16h10.48.497,Dog face experiment_fully sample_901-1225,2021.1.4,MacIntel,59.99520038
,,,,,,q,1.7793,0,237,237,237,1,237,images/pixabay_dog_002360.jpg,images/pixabay_dog_000952.jpg,Chenxi Liao,001,2021-06-21_16h10.48.497,Dog face experiment_fully sample_901-1225,2021.1.4,MacIntel,59.99520038
,,,,,,p,1.0467,0,238,238,238,1,238,images/pixabay_dog_003971.jpg,images/flickr_dog_000566.jpg,Chenxi Liao,001,2021-06-21_16h10.48.497,Dog face experiment_fully sample_901-1225,2021.1.4,MacIntel,59.99520038
,,,,,,p,0.7095,0,239,239,239,1,239,images/pixabay_dog_003727.jpg,images/pixabay_dog_003357.jpg,Chenxi Liao,001,2021-06-21_16h10.48.497,Dog face experiment_fully sample_901-1225,2021.1.4,MacIntel,59.99520038
,,,,,,q,0.7765,0,240,240,240,1,240,images/pixabay_dog_002268.jpg,images/pixabay_dog_003727.jpg,Chenxi Liao,001,2021-06-21_16h10.48.497,Dog face experiment_fully sample_901-1225,2021.1.4,MacIntel,59.99520038
,,,,,,q,0.8027,0,241,241,241,1,241,images/pixabay_dog_003238.jpg,images/pixabay_dog_003727.jpg,Chenxi Liao,001,2021-06-21_16h10.48.497,Dog face experiment_fully sample_901-1225,2021.1.4,MacIntel,59.99520038
,,,,,,p,0.8604,0,242,242,242,1,242,images/pixabay_dog_001255.jpg,images/flickr_dog_001107.jpg,Chenxi Liao,001,2021-06-21_16h10.48.497,Dog face experiment_fully sample_901-1225,2021.1.4,MacIntel,59.99520038
,,,,,,q,0.8857,0,243,243,243,1,243,images/flickr_dog_000232.jpg,images/pixabay_dog_001465.jpg,Chenxi Liao,001,2021-06-21_16h10.48.497,Dog face experiment_fully sample_901-1225,2021.1.4,MacIntel,59.99520038
,,,,,,q,0.9937,0,244,244,244,1,244,images/pixabay_dog_000744.jpg,images/pixabay_dog_000914.jpg,Chenxi Liao,001,2021-06-21_16h10.48.497,Dog face experiment_fully sample_901-1225,2021.1.4,MacIntel,59.99520038
,,,,,,p,0.983,0,245,245,245,1,245,images/pixabay_dog_000853.jpg,images/pixabay_dog_003310.jpg,Chenxi Liao,001,2021-06-21_16h10.48.497,Dog face experiment_fully sample_901-1225,2021.1.4,MacIntel,59.99520038
,,,,,,q,0.8784,0,246,246,246,1,246,images/pixabay_dog_001150.jpg,images/pixabay_dog_002793.jpg,Chenxi Liao,001,2021-06-21_16h10.48.497,Dog face experiment_fully sample_901-1225,2021.1.4,MacIntel,59.99520038
,,,,,,p,0.8842,0,247,247,247,1,247,images/flickr_dog_000083.jpg,images/pixabay_dog_002596.jpg,Chenxi Liao,001,2021-06-21_16h10.48.497,Dog face experiment_fully sample_901-1225,2021.1.4,MacIntel,59.99520038
,,,,,,p,0.7938,0,248,248,248,1,248,images/pixabay_dog_002268.jpg,images/flickr_dog_000861.jpg,Chenxi Liao,001,2021-06-21_16h10.48.497,Dog face experiment_fully sample_901-1225,2021.1.4,MacIntel,59.99520038
,,,,,,p,1.0816,0,249,249,249,1,249,images/flickr_dog_000566.jpg,images/pixabay_dog_003310.jpg,Chenxi Liao,001,2021-06-21_16h10.48.497,Dog face experiment_fully sample_901-1225,2021.1.4,MacIntel,59.99520038
,,,,,,p,0.762,0,250,250,250,1,250,images/flickr_dog_000932.jpg,images/flickr_dog_000266.jpg,Chenxi Liao,001,2021-06-21_16h10.48.497,Dog face experiment_fully sample_901-1225,2021.1.4,MacIntel,59.99520038
,,,,,,p,1.5259,0,251,251,251,1,251,images/pixabay_dog_000914.jpg,images/pixabay_dog_001712.jpg,Chenxi Liao,001,2021-06-21_16h10.48.497,Dog face experiment_fully sample_901-1225,2021.1.4,MacIntel,59.99520038
,,,,,,q,0.7818,0,252,252,252,1,252,images/pixabay_dog_000914.jpg,images/pixabay_dog_001960.jpg,Chenxi Liao,001,2021-06-21_16h10.48.497,Dog face experiment_fully sample_901-1225,2021.1.4,MacIntel,59.99520038
,,,,,,q,1.0099,0,253,253,253,1,253,images/flickr_dog_000201.jpg,images/pixabay_dog_000853.jpg,Chenxi Liao,001,2021-06-21_16h10.48.497,Dog face experiment_fully sample_901-1225,2021.1.4,MacIntel,59.99520038
,,,,,,p,0.7122,0,254,254,254,1,254,images/pixabay_dog_003098.jpg,images/pixabay_dog_002989.jpg,Chenxi Liao,001,2021-06-21_16h10.48.497,Dog face experiment_fully sample_901-1225,2021.1.4,MacIntel,59.99520038
,,,,,,p,1.1933,0,255,255,255,1,255,images/flickr_dog_000083.jpg,images/pixabay_dog_002793.jpg,Chenxi Liao,001,2021-06-21_16h10.48.497,Dog face experiment_fully sample_901-1225,2021.1.4,MacIntel,59.99520038
,,,,,,p,0.6603,0,256,256,256,1,256,images/pixabay_dog_002899.jpg,images/flickr_dog_000261.jpg,Chenxi Liao,001,2021-06-21_16h10.48.497,Dog face experiment_fully sample_901-1225,2021.1.4,MacIntel,59.99520038
,,,,,,p,0.8153,0,257,257,257,1,257,images/flickr_dog_000083.jpg,images/pixabay_dog_003310.jpg,Chenxi Liao,001,2021-06-21_16h10.48.497,Dog face experiment_fully sample_901-1225,2021.1.4,MacIntel,59.99520038
,,,,,,q,0.8481,0,258,258,258,1,258,images/flickr_dog_000019.jpg,images/pixabay_dog_003310.jpg,Chenxi Liao,001,2021-06-21_16h10.48.497,Dog face experiment_fully sample_901-1225,2021.1.4,MacIntel,59.99520038
,,,,,,q,0.732,0,259,259,259,1,259,images/pixabay_dog_002899.jpg,images/pixabay_dog_003098.jpg,Chenxi Liao,001,2021-06-21_16h10.48.497,Dog face experiment_fully sample_901-1225,2021.1.4,MacIntel,59.99520038
,,,,,,q,0.7144,0,260,260,260,1,260,images/pixabay_dog_002744.jpg,images/pixabay_dog_000952.jpg,Chenxi Liao,001,2021-06-21_16h10.48.497,Dog face experiment_fully sample_901-1225,2021.1.4,MacIntel,59.99520038
,,,,,,p,0.6942,0,261,261,261,1,261,images/pixabay_dog_000744.jpg,images/pixabay_dog_001843.jpg,Chenxi Liao,001,2021-06-21_16h10.48.497,Dog face experiment_fully sample_901-1225,2021.1.4,MacIntel,59.99520038
,,,,,,p,0.9615,0,262,262,262,1,262,images/pixabay_dog_003604.jpg,images/pixabay_dog_001465.jpg,Chenxi Liao,001,2021-06-21_16h10.48.497,Dog face experiment_fully sample_901-1225,2021.1.4,MacIntel,59.99520038
,,,,,,q,1.0606,0,263,263,263,1,263,images/pixabay_dog_003305.jpg,images/pixabay_dog_000952.jpg,Chenxi Liao,001,2021-06-21_16h10.48.497,Dog face experiment_fully sample_901-1225,2021.1.4,MacIntel,59.99520038
,,,,,,p,0.7497,0,264,264,264,1,264,images/pixabay_dog_002861.jpg,images/flickr_dog_000232.jpg,Chenxi Liao,001,2021-06-21_16h10.48.497,Dog face experiment_fully sample_901-1225,2021.1.4,MacIntel,59.99520038
,,,,,,q,1.2933,0,265,265,265,1,265,images/pixabay_dog_002899.jpg,images/pixabay_dog_003859.jpg,Chenxi Liao,001,2021-06-21_16h10.48.497,Dog face experiment_fully sample_901-1225,2021.1.4,MacIntel,59.99520038
,,,,,,q,0.795,0,266,266,266,1,266,images/pixabay_dog_003829.jpg,images/pixabay_dog_003859.jpg,Chenxi Liao,001,2021-06-21_16h10.48.497,Dog face experiment_fully sample_901-1225,2021.1.4,MacIntel,59.99520038
,,,,,,q,1.2178,0,267,267,267,1,267,images/pixabay_dog_000805.jpg,images/pixabay_dog_001960.jpg,Chenxi Liao,001,2021-06-21_16h10.48.497,Dog face experiment_fully sample_901-1225,2021.1.4,MacIntel,59.99520038
,,,,,,p,0.7281,0,268,268,268,1,268,images/pixabay_dog_000042.jpg,images/pixabay_dog_001712.jpg,Chenxi Liao,001,2021-06-21_16h10.48.497,Dog face experiment_fully sample_901-1225,2021.1.4,MacIntel,59.99520038
,,,,,,p,0.8108,0,269,269,269,1,269,images/pixabay_dog_001524.jpg,images/flickr_dog_001107.jpg,Chenxi Liao,001,2021-06-21_16h10.48.497,Dog face experiment_fully sample_901-1225,2021.1.4,MacIntel,59.99520038
,,,,,,p,0.7598,0,270,270,270,1,270,images/pixabay_dog_002744.jpg,images/flickr_dog_000913.jpg,Chenxi Liao,001,2021-06-21_16h10.48.497,Dog face experiment_fully sample_901-1225,2021.1.4,MacIntel,59.99520038
,,,,,,q,0.6476,0,271,271,271,1,271,images/pixabay_dog_003305.jpg,images/pixabay_dog_002744.jpg,Chenxi Liao,001,2021-06-21_16h10.48.497,Dog face experiment_fully sample_901-1225,2021.1.4,MacIntel,59.99520038
,,,,,,q,0.7796,0,272,272,272,1,272,images/pixabay_dog_002282.jpg,images/pixabay_dog_002649.jpg,Chenxi Liao,001,2021-06-21_16h10.48.497,Dog face experiment_fully sample_901-1225,2021.1.4,MacIntel,59.99520038
,,,,,,q,1.0698,0,273,273,273,1,273,images/pixabay_dog_003305.jpg,images/pixabay_dog_002861.jpg,Chenxi Liao,001,2021-06-21_16h10.48.497,Dog face experiment_fully sample_901-1225,2021.1.4,MacIntel,59.99520038
,,,,,,p,0.827,0,274,274,274,1,274,images/pixabay_dog_002649.jpg,images/pixabay_dog_000525.jpg,Chenxi Liao,001,2021-06-21_16h10.48.497,Dog face experiment_fully sample_901-1225,2021.1.4,MacIntel,59.99520038
,,,,,,q,0.6303,0,275,275,275,1,275,images/pixabay_dog_001150.jpg,images/pixabay_dog_002268.jpg,Chenxi Liao,001,2021-06-21_16h10.48.497,Dog face experiment_fully sample_901-1225,2021.1.4,MacIntel,59.99520038
,,,,,,p,0.7779,0,276,276,276,1,276,images/pixabay_dog_001255.jpg,images/pixabay_dog_002282.jpg,Chenxi Liao,001,2021-06-21_16h10.48.497,Dog face experiment_fully sample_901-1225,2021.1.4,MacIntel,59.99520038
,,,,,,p,0.7941,0,277,277,277,1,277,images/flickr_dog_000566.jpg,images/pixabay_dog_000525.jpg,Chenxi Liao,001,2021-06-21_16h10.48.497,Dog face experiment_fully sample_901-1225,2021.1.4,MacIntel,59.99520038
,,,,,,q,0.8447,0,278,278,278,1,278,images/pixabay_dog_001150.jpg,images/pixabay_dog_003098.jpg,Chenxi Liao,001,2021-06-21_16h10.48.497,Dog face experiment_fully sample_901-1225,2021.1.4,MacIntel,59.99520038
,,,,,,p,0.7104,0,279,279,279,1,279,images/flickr_dog_001079.jpg,images/flickr_dog_001107.jpg,Chenxi Liao,001,2021-06-21_16h10.48.497,Dog face experiment_fully sample_901-1225,2021.1.4,MacIntel,59.99520038
,,,,,,q,0.9622,0,280,280,280,1,280,images/flickr_dog_001079.jpg,images/pixabay_dog_003310.jpg,Chenxi Liao,001,2021-06-21_16h10.48.497,Dog face experiment_fully sample_901-1225,2021.1.4,MacIntel,59.99520038
,,,,,,q,0.884,0,281,281,281,1,281,images/flickr_dog_000019.jpg,images/pixabay_dog_002649.jpg,Chenxi Liao,001,2021-06-21_16h10.48.497,Dog face experiment_fully sample_901-1225,2021.1.4,MacIntel,59.99520038
,,,,,,p,0.7682,0,282,282,282,1,282,images/pixabay_dog_002861.jpg,images/flickr_dog_000201.jpg,Chenxi Liao,001,2021-06-21_16h10.48.497,Dog face experiment_fully sample_901-1225,2021.1.4,MacIntel,59.99520038
,,,,,,p,0.83,0,283,283,283,1,283,images/pixabay_dog_003098.jpg,images/pixabay_dog_001843.jpg,Chenxi Liao,001,2021-06-21_16h10.48.497,Dog face experiment_fully sample_901-1225,2021.1.4,MacIntel,59.99520038
,,,,,,p,1.2443,0,284,284,284,1,284,images/pixabay_dog_000744.jpg,images/flickr_dog_000266.jpg,Chenxi Liao,001,2021-06-21_16h10.48.497,Dog face experiment_fully sample_901-1225,2021.1.4,MacIntel,59.99520038
,,,,,,p,0.883,0,285,285,285,1,285,images/flickr_dog_000279.jpg,images/pixabay_dog_003859.jpg,Chenxi Liao,001,2021-06-21_16h10.48.497,Dog face experiment_fully sample_901-1225,2021.1.4,MacIntel,59.99520038
,,,,,,q,0.8137,0,286,286,286,1,286,images/flickr_dog_000261.jpg,images/pixabay_dog_003357.jpg,Chenxi Liao,001,2021-06-21_16h10.48.497,Dog face experiment_fully sample_901-1225,2021.1.4,MacIntel,59.99520038
,,,,,,p,0.6688,0,287,287,287,1,287,images/pixabay_dog_001712.jpg,images/pixabay_dog_001843.jpg,Chenxi Liao,001,2021-06-21_16h10.48.497,Dog face experiment_fully sample_901-1225,2021.1.4,MacIntel,59.99520038
,,,,,,q,0.6612,0,288,288,288,1,288,images/pixabay_dog_003238.jpg,images/flickr_dog_000201.jpg,Chenxi Liao,001,2021-06-21_16h10.48.497,Dog face experiment_fully sample_901-1225,2021.1.4,MacIntel,59.99520038
,,,,,,q,0.8789,0,289,289,289,1,289,images/pixabay_dog_002899.jpg,images/pixabay_dog_001524.jpg,Chenxi Liao,001,2021-06-21_16h10.48.497,Dog face experiment_fully sample_901-1225,2021.1.4,MacIntel,59.99520038
,,,,,,q,0.7775,0,290,290,290,1,290,images/flickr_dog_000566.jpg,images/pixabay_dog_000853.jpg,Chenxi Liao,001,2021-06-21_16h10.48.497,Dog face experiment_fully sample_901-1225,2021.1.4,MacIntel,59.99520038
,,,,,,q,0.7609,0,291,291,291,1,291,images/flickr_dog_000861.jpg,images/flickr_dog_000019.jpg,Chenxi Liao,001,2021-06-21_16h10.48.497,Dog face experiment_fully sample_901-1225,2021.1.4,MacIntel,59.99520038
,,,,,,q,0.8667,0,292,292,292,1,292,images/pixabay_dog_002899.jpg,images/pixabay_dog_003310.jpg,Chenxi Liao,001,2021-06-21_16h10.48.497,Dog face experiment_fully sample_901-1225,2021.1.4,MacIntel,59.99520038
,,,,,,p,0.7609,0,293,293,293,1,293,images/pixabay_dog_002268.jpg,images/flickr_dog_000913.jpg,Chenxi Liao,001,2021-06-21_16h10.48.497,Dog face experiment_fully sample_901-1225,2021.1.4,MacIntel,59.99520038
,,,,,,p,1.2979,0,294,294,294,1,294,images/pixabay_dog_001712.jpg,images/pixabay_dog_002649.jpg,Chenxi Liao,001,2021-06-21_16h10.48.497,Dog face experiment_fully sample_901-1225,2021.1.4,MacIntel,59.99520038
,,,,,,q,0.7136,0,295,295,295,1,295,images/pixabay_dog_003829.jpg,images/pixabay_dog_001960.jpg,Chenxi Liao,001,2021-06-21_16h10.48.497,Dog face experiment_fully sample_901-1225,2021.1.4,MacIntel,59.99520038
,,,,,,q,0.8446,0,296,296,296,1,296,images/pixabay_dog_003098.jpg,images/flickr_dog_000083.jpg,Chenxi Liao,001,2021-06-21_16h10.48.497,Dog face experiment_fully sample_901-1225,2021.1.4,MacIntel,59.99520038
,,,,,,q,0.7414,0,297,297,297,1,297,images/flickr_dog_001079.jpg,images/pixabay_dog_000805.jpg,Chenxi Liao,001,2021-06-21_16h10.48.497,Dog face experiment_fully sample_901-1225,2021.1.4,MacIntel,59.99520038
,,,,,,p,0.8426,0,298,298,298,1,298,images/flickr_dog_000201.jpg,images/flickr_dog_000194.jpg,Chenxi Liao,001,2021-06-21_16h10.48.497,Dog face experiment_fully sample_901-1225,2021.1.4,MacIntel,59.99520038
,,,,,,q,0.8976,0,299,299,299,1,299,images/flickr_dog_000201.jpg,images/pixabay_dog_001524.jpg,Chenxi Liao,001,2021-06-21_16h10.48.497,Dog face experiment_fully sample_901-1225,2021.1.4,MacIntel,59.99520038
,,,,,,q,1.0342,0,300,300,300,1,300,images/pixabay_dog_000744.jpg,images/pixabay_dog_003727.jpg,Chenxi Liao,001,2021-06-21_16h10.48.497,Dog face experiment_fully sample_901-1225,2021.1.4,MacIntel,59.99520038
,,,,,,p,0.9949,0,301,301,301,1,301,images/pixabay_dog_002861.jpg,images/pixabay_dog_000805.jpg,Chenxi Liao,001,2021-06-21_16h10.48.497,Dog face experiment_fully sample_901-1225,2021.1.4,MacIntel,59.99520038
,,,,,,p,0.8474,0,302,302,302,1,302,images/pixabay_dog_002793.jpg,images/pixabay_dog_000525.jpg,Chenxi Liao,001,2021-06-21_16h10.48.497,Dog face experiment_fully sample_901-1225,2021.1.4,MacIntel,59.99520038
,,,,,,q,0.8844,0,303,303,303,1,303,images/pixabay_dog_003305.jpg,images/flickr_dog_000913.jpg,Chenxi Liao,001,2021-06-21_16h10.48.497,Dog face experiment_fully sample_901-1225,2021.1.4,MacIntel,59.99520038
,,,,,,q,1.4321,0,304,304,304,1,304,images/flickr_dog_000083.jpg,images/pixabay_dog_001960.jpg,Chenxi Liao,001,2021-06-21_16h10.48.497,Dog face experiment_fully sample_901-1225,2021.1.4,MacIntel,59.99520038
,,,,,,q,0.8127,0,305,305,305,1,305,images/flickr_dog_000932.jpg,images/pixabay_dog_000952.jpg,Chenxi Liao,001,2021-06-21_16h10.48.497,Dog face experiment_fully sample_901-1225,2021.1.4,MacIntel,59.99520038
,,,,,,q,0.8783,0,306,306,306,1,306,images/pixabay_dog_002899.jpg,images/pixabay_dog_001712.jpg,Chenxi Liao,001,2021-06-21_16h10.48.497,Dog face experiment_fully sample_901-1225,2021.1.4,MacIntel,59.99520038
,,,,,,q,0.6773,0,307,307,307,1,307,images/pixabay_dog_000744.jpg,images/pixabay_dog_003604.jpg,Chenxi Liao,001,2021-06-21_16h10.48.497,Dog face experiment_fully sample_901-1225,2021.1.4,MacIntel,59.99520038
,,,,,,p,0.7147,0,308,308,308,1,308,images/pixabay_dog_000042.jpg,images/pixabay_dog_001465.jpg,Chenxi Liao,001,2021-06-21_16h10.48.497,Dog face experiment_fully sample_901-1225,2021.1.4,MacIntel,59.99520038
,,,,,,q,0.6777,0,309,309,309,1,309,images/flickr_dog_000566.jpg,images/pixabay_dog_003727.jpg,Chenxi Liao,001,2021-06-21_16h10.48.497,Dog face experiment_fully sample_901-1225,2021.1.4,MacIntel,59.99520038
,,,,,,q,2.3471,0,310,310,310,1,310,images/flickr_dog_000566.jpg,images/pixabay_dog_002268.jpg,Chenxi Liao,001,2021-06-21_16h10.48.497,Dog face experiment_fully sample_901-1225,2021.1.4,MacIntel,59.99520038
,,,,,,q,0.6971,0,311,311,311,1,311,images/flickr_dog_000019.jpg,images/pixabay_dog_002282.jpg,Chenxi Liao,001,2021-06-21_16h10.48.497,Dog face experiment_fully sample_901-1225,2021.1.4,MacIntel,59.99520038
,,,,,,q,0.6129,0,312,312,312,1,312,images/flickr_dog_000261.jpg,images/pixabay_dog_002282.jpg,Chenxi Liao,001,2021-06-21_16h10.48.497,Dog face experiment_fully sample_901-1225,2021.1.4,MacIntel,59.99520038
,,,,,,q,0.8925,0,313,313,313,1,313,images/flickr_dog_001079.jpg,images/flickr_dog_000201.jpg,Chenxi Liao,001,2021-06-21_16h10.48.497,Dog face experiment_fully sample_901-1225,2021.1.4,MacIntel,59.99520038
,,,,,,q,0.6769,0,314,314,314,1,314,images/flickr_dog_000932.jpg,images/pixabay_dog_000853.jpg,Chenxi Liao,001,2021-06-21_16h10.48.497,Dog face experiment_fully sample_901-1225,2021.1.4,MacIntel,59.99520038
,,,,,,p,0.7607,0,315,315,315,1,315,images/pixabay_dog_002282.jpg,images/pixabay_dog_003829.jpg,Chenxi Liao,001,2021-06-21_16h10.48.497,Dog face experiment_fully sample_901-1225,2021.1.4,MacIntel,59.99520038
,,,,,,q,1.1877,0,316,316,316,1,316,images/flickr_dog_000566.jpg,images/pixabay_dog_003098.jpg,Chenxi Liao,001,2021-06-21_16h10.48.497,Dog face experiment_fully sample_901-1225,2021.1.4,MacIntel,59.99520038
,,,,,,p,0.8437,0,317,317,317,1,317,images/pixabay_dog_003727.jpg,images/pixabay_dog_003859.jpg,Chenxi Liao,001,2021-06-21_16h10.48.497,Dog face experiment_fully sample_901-1225,2021.1.4,MacIntel,59.99520038
,,,,,,q,0.927,0,318,318,318,1,318,images/flickr_dog_000083.jpg,images/pixabay_dog_002282.jpg,Chenxi Liao,001,2021-06-21_16h10.48.497,Dog face experiment_fully sample_901-1225,2021.1.4,MacIntel,59.99520038
,,,,,,p,1.0096,0,319,319,319,1,319,images/flickr_dog_000194.jpg,images/pixabay_dog_003357.jpg,Chenxi Liao,001,2021-06-21_16h10.48.497,Dog face experiment_fully sample_901-1225,2021.1.4,MacIntel,59.99520038
,,,,,,p,1.428,0,320,320,320,1,320,images/pixabay_dog_001712.jpg,images/pixabay_dog_001524.jpg,Chenxi Liao,001,2021-06-21_16h10.48.497,Dog face experiment_fully sample_901-1225,2021.1.4,MacIntel,59.99520038
,,,,,,p,0.8776,0,321,321,321,1,321,images/pixabay_dog_003238.jpg,images/pixabay_dog_003859.jpg,Chenxi Liao,001,2021-06-21_16h10.48.497,Dog face experiment_fully sample_901-1225,2021.1.4,MacIntel,59.99520038
,,,,,,p,0.7858,0,322,322,322,1,322,images/pixabay_dog_003727.jpg,images/pixabay_dog_002989.jpg,Chenxi Liao,001,2021-06-21_16h10.48.497,Dog face experiment_fully sample_901-1225,2021.1.4,MacIntel,59.99520038
,,,,,,q,1.0337,0,323,323,323,1,323,images/flickr_dog_001079.jpg,images/pixabay_dog_002268.jpg,Chenxi Liao,001,2021-06-21_16h10.48.497,Dog face experiment_fully sample_901-1225,2021.1.4,MacIntel,59.99520038
,,,,,,q,1.2786,0,324,324,324,1,324,images/flickr_dog_000201.jpg,images/pixabay_dog_002989.jpg,Chenxi Liao,001,2021-06-21_16h10.48.497,Dog face experiment_fully sample_901-1225,2021.1.4,MacIntel,59.99520038
