key_resp.keys,key_resp.rt,key_resp_2.keys,key_resp_2.rt,key_resp_3.keys,key_resp_3.rt,key_resp_4.keys,key_resp_4.rt,trials.thisRepN,trials.thisTrialN,trials.thisN,trials.thisIndex,trials.ran,trail_nums,img1,img2,participant,session,date,expName,psychopyVersion,OS,frameRate
space,1.2363,space,1.0026,space,0.8564,p,3.4388,0,0,0,0,1,0,images/pixabay_dog_000853.jpg,images/pixabay_dog_003859.jpg,Chenxi Liao,001,2021-06-21_15h51.58.073,Dog face experiment_fully sample_0-300,2021.1.4,MacIntel,59.99520038
,,,,,,p,1.5333,0,1,1,1,1,1,images/pixabay_dog_001960.jpg,images/pixabay_dog_000525.jpg,Chenxi Liao,001,2021-06-21_15h51.58.073,Dog face experiment_fully sample_0-300,2021.1.4,MacIntel,59.99520038
,,,,,,p,1.8706,0,2,2,2,1,2,images/pixabay_dog_003971.jpg,images/pixabay_dog_000744.jpg,Chenxi Liao,001,2021-06-21_15h51.58.073,Dog face experiment_fully sample_0-300,2021.1.4,MacIntel,59.99520038
,,,,,,p,1.8803,0,3,3,3,1,3,images/pixabay_dog_000805.jpg,images/pixabay_dog_000525.jpg,Chenxi Liao,001,2021-06-21_15h51.58.073,Dog face experiment_fully sample_0-300,2021.1.4,MacIntel,59.99520038
,,,,,,p,1.8853,0,4,4,4,1,4,images/pixabay_dog_003238.jpg,images/pixabay_dog_002282.jpg,Chenxi Liao,001,2021-06-21_15h51.58.073,Dog face experiment_fully sample_0-300,2021.1.4,MacIntel,59.99520038
,,,,,,p,1.9712,0,5,5,5,1,5,images/pixabay_dog_003727.jpg,images/flickr_dog_000083.jpg,Chenxi Liao,001,2021-06-21_15h51.58.073,Dog face experiment_fully sample_0-300,2021.1.4,MacIntel,59.99520038
,,,,,,p,1.3247,0,6,6,6,1,6,images/pixabay_dog_002282.jpg,images/pixabay_dog_003859.jpg,Chenxi Liao,001,2021-06-21_15h51.58.073,Dog face experiment_fully sample_0-300,2021.1.4,MacIntel,59.99520038
,,,,,,p,1.4877,0,7,7,7,1,7,images/pixabay_dog_003305.jpg,images/pixabay_dog_002360.jpg,Chenxi Liao,001,2021-06-21_15h51.58.073,Dog face experiment_fully sample_0-300,2021.1.4,MacIntel,59.99520038
,,,,,,p,1.628,0,8,8,8,1,8,images/pixabay_dog_001255.jpg,images/flickr_dog_000932.jpg,Chenxi Liao,001,2021-06-21_15h51.58.073,Dog face experiment_fully sample_0-300,2021.1.4,MacIntel,59.99520038
,,,,,,p,1.3747,0,9,9,9,1,9,images/pixabay_dog_000805.jpg,images/pixabay_dog_003357.jpg,Chenxi Liao,001,2021-06-21_15h51.58.073,Dog face experiment_fully sample_0-300,2021.1.4,MacIntel,59.99520038
,,,,,,p,1.2272,0,10,10,10,1,10,images/pixabay_dog_002282.jpg,images/pixabay_dog_002989.jpg,Chenxi Liao,001,2021-06-21_15h51.58.073,Dog face experiment_fully sample_0-300,2021.1.4,MacIntel,59.99520038
,,,,,,p,2.3836,0,11,11,11,1,11,images/pixabay_dog_000744.jpg,images/flickr_dog_001107.jpg,Chenxi Liao,001,2021-06-21_15h51.58.073,Dog face experiment_fully sample_0-300,2021.1.4,MacIntel,59.99520038
,,,,,,p,1.3822,0,12,12,12,1,12,images/pixabay_dog_002282.jpg,images/pixabay_dog_002596.jpg,Chenxi Liao,001,2021-06-21_15h51.58.073,Dog face experiment_fully sample_0-300,2021.1.4,MacIntel,59.99520038
,,,,,,p,1.3917,0,13,13,13,1,13,images/flickr_dog_000083.jpg,images/flickr_dog_001107.jpg,Chenxi Liao,001,2021-06-21_15h51.58.073,Dog face experiment_fully sample_0-300,2021.1.4,MacIntel,59.99520038
,,,,,,q,1.9654,0,14,14,14,1,14,images/flickr_dog_000232.jpg,images/flickr_dog_000083.jpg,Chenxi Liao,001,2021-06-21_15h51.58.073,Dog face experiment_fully sample_0-300,2021.1.4,MacIntel,59.99520038
,,,,,,q,1.6614,0,15,15,15,1,15,images/pixabay_dog_002268.jpg,images/pixabay_dog_001524.jpg,Chenxi Liao,001,2021-06-21_15h51.58.073,Dog face experiment_fully sample_0-300,2021.1.4,MacIntel,59.99520038
,,,,,,q,1.644,0,16,16,16,1,16,images/pixabay_dog_002744.jpg,images/pixabay_dog_001524.jpg,Chenxi Liao,001,2021-06-21_15h51.58.073,Dog face experiment_fully sample_0-300,2021.1.4,MacIntel,59.99520038
,,,,,,q,1.6311,0,17,17,17,1,17,images/pixabay_dog_001712.jpg,images/pixabay_dog_001960.jpg,Chenxi Liao,001,2021-06-21_15h51.58.073,Dog face experiment_fully sample_0-300,2021.1.4,MacIntel,59.99520038
,,,,,,p,1.2431,0,18,18,18,1,18,images/flickr_dog_000083.jpg,images/pixabay_dog_001465.jpg,Chenxi Liao,001,2021-06-21_15h51.58.073,Dog face experiment_fully sample_0-300,2021.1.4,MacIntel,59.99520038
,,,,,,p,1.2581,0,19,19,19,1,19,images/pixabay_dog_000042.jpg,images/pixabay_dog_000853.jpg,Chenxi Liao,001,2021-06-21_15h51.58.073,Dog face experiment_fully sample_0-300,2021.1.4,MacIntel,59.99520038
,,,,,,q,1.3965,0,20,20,20,1,20,images/flickr_dog_000261.jpg,images/pixabay_dog_003829.jpg,Chenxi Liao,001,2021-06-21_15h51.58.073,Dog face experiment_fully sample_0-300,2021.1.4,MacIntel,59.99520038
,,,,,,p,1.2598,0,21,21,21,1,21,images/pixabay_dog_000853.jpg,images/flickr_dog_000913.jpg,Chenxi Liao,001,2021-06-21_15h51.58.073,Dog face experiment_fully sample_0-300,2021.1.4,MacIntel,59.99520038
,,,,,,p,1.2078,0,22,22,22,1,22,images/pixabay_dog_000042.jpg,images/pixabay_dog_002793.jpg,Chenxi Liao,001,2021-06-21_15h51.58.073,Dog face experiment_fully sample_0-300,2021.1.4,MacIntel,59.99520038
,,,,,,p,1.0249,0,23,23,23,1,23,images/pixabay_dog_001255.jpg,images/pixabay_dog_002989.jpg,Chenxi Liao,001,2021-06-21_15h51.58.073,Dog face experiment_fully sample_0-300,2021.1.4,MacIntel,59.99520038
,,,,,,q,1.7437,0,24,24,24,1,24,images/pixabay_dog_002360.jpg,images/flickr_dog_000083.jpg,Chenxi Liao,001,2021-06-21_15h51.58.073,Dog face experiment_fully sample_0-300,2021.1.4,MacIntel,59.99520038
,,,,,,q,2.0281,0,25,25,25,1,25,images/flickr_dog_000861.jpg,images/flickr_dog_000932.jpg,Chenxi Liao,001,2021-06-21_15h51.58.073,Dog face experiment_fully sample_0-300,2021.1.4,MacIntel,59.99520038
,,,,,,p,1.2498,0,26,26,26,1,26,images/pixabay_dog_003971.jpg,images/flickr_dog_000913.jpg,Chenxi Liao,001,2021-06-21_15h51.58.073,Dog face experiment_fully sample_0-300,2021.1.4,MacIntel,59.99520038
,,,,,,p,1.7978,0,27,27,27,1,27,images/flickr_dog_000201.jpg,images/pixabay_dog_003310.jpg,Chenxi Liao,001,2021-06-21_15h51.58.073,Dog face experiment_fully sample_0-300,2021.1.4,MacIntel,59.99520038
,,,,,,p,1.3073,0,28,28,28,1,28,images/pixabay_dog_003859.jpg,images/pixabay_dog_001843.jpg,Chenxi Liao,001,2021-06-21_15h51.58.073,Dog face experiment_fully sample_0-300,2021.1.4,MacIntel,59.99520038
,,,,,,p,1.5257,0,29,29,29,1,29,images/pixabay_dog_002282.jpg,images/pixabay_dog_000932.jpg,Chenxi Liao,001,2021-06-21_15h51.58.073,Dog face experiment_fully sample_0-300,2021.1.4,MacIntel,59.99520038
,,,,,,q,2.2833,0,30,30,30,1,30,images/flickr_dog_000261.jpg,images/pixabay_dog_001524.jpg,Chenxi Liao,001,2021-06-21_15h51.58.073,Dog face experiment_fully sample_0-300,2021.1.4,MacIntel,59.99520038
,,,,,,q,2.3311,0,31,31,31,1,31,images/pixabay_dog_000914.jpg,images/flickr_dog_000201.jpg,Chenxi Liao,001,2021-06-21_15h51.58.073,Dog face experiment_fully sample_0-300,2021.1.4,MacIntel,59.99520038
,,,,,,p,1.625,0,32,32,32,1,32,images/pixabay_dog_001255.jpg,images/pixabay_dog_002596.jpg,Chenxi Liao,001,2021-06-21_15h51.58.073,Dog face experiment_fully sample_0-300,2021.1.4,MacIntel,59.99520038
,,,,,,p,1.4095,0,33,33,33,1,33,images/flickr_dog_000261.jpg,images/pixabay_dog_003859.jpg,Chenxi Liao,001,2021-06-21_15h51.58.073,Dog face experiment_fully sample_0-300,2021.1.4,MacIntel,59.99520038
,,,,,,q,2.3577,0,34,34,34,1,34,images/pixabay_dog_000914.jpg,images/pixabay_dog_001465.jpg,Chenxi Liao,001,2021-06-21_15h51.58.073,Dog face experiment_fully sample_0-300,2021.1.4,MacIntel,59.99520038
,,,,,,p,1.3796,0,35,35,35,1,35,images/pixabay_dog_001150.jpg,images/pixabay_dog_001843.jpg,Chenxi Liao,001,2021-06-21_15h51.58.073,Dog face experiment_fully sample_0-300,2021.1.4,MacIntel,59.99520038
,,,,,,q,1.4582,0,36,36,36,1,36,images/pixabay_dog_003971.jpg,images/pixabay_dog_003727.jpg,Chenxi Liao,001,2021-06-21_15h51.58.073,Dog face experiment_fully sample_0-300,2021.1.4,MacIntel,59.99520038
,,,,,,p,2.8445,0,37,37,37,1,37,images/pixabay_dog_002744.jpg,images/flickr_dog_000932.jpg,Chenxi Liao,001,2021-06-21_15h51.58.073,Dog face experiment_fully sample_0-300,2021.1.4,MacIntel,59.99520038
,,,,,,q,0.9759,0,38,38,38,1,38,images/flickr_dog_000861.jpg,images/flickr_dog_000266.jpg,Chenxi Liao,001,2021-06-21_15h51.58.073,Dog face experiment_fully sample_0-300,2021.1.4,MacIntel,59.99520038
,,,,,,p,1.5743,0,39,39,39,1,39,images/flickr_dog_000019.jpg,images/pixabay_dog_003859.jpg,Chenxi Liao,001,2021-06-21_15h51.58.073,Dog face experiment_fully sample_0-300,2021.1.4,MacIntel,59.99520038
,,,,,,p,1.8582,0,40,40,40,1,40,images/pixabay_dog_002282.jpg,images/pixabay_dog_000525.jpg,Chenxi Liao,001,2021-06-21_15h51.58.073,Dog face experiment_fully sample_0-300,2021.1.4,MacIntel,59.99520038
,,,,,,p,1.5778,0,41,41,41,1,41,images/pixabay_dog_000744.jpg,images/pixabay_dog_002596.jpg,Chenxi Liao,001,2021-06-21_15h51.58.073,Dog face experiment_fully sample_0-300,2021.1.4,MacIntel,59.99520038
,,,,,,p,1.1663,0,42,42,42,1,42,images/pixabay_dog_000952.jpg,images/pixabay_dog_002596.jpg,Chenxi Liao,001,2021-06-21_15h51.58.073,Dog face experiment_fully sample_0-300,2021.1.4,MacIntel,59.99520038
,,,,,,p,1.1916,0,43,43,43,1,43,images/pixabay_dog_000932.jpg,images/flickr_dog_000194.jpg,Chenxi Liao,001,2021-06-21_15h51.58.073,Dog face experiment_fully sample_0-300,2021.1.4,MacIntel,59.99520038
,,,,,,p,1.3319,0,44,44,44,1,44,images/flickr_dog_000279.jpg,images/flickr_dog_000232.jpg,Chenxi Liao,001,2021-06-21_15h51.58.073,Dog face experiment_fully sample_0-300,2021.1.4,MacIntel,59.99520038
,,,,,,q,1.7519,0,45,45,45,1,45,images/pixabay_dog_000805.jpg,images/pixabay_dog_000853.jpg,Chenxi Liao,001,2021-06-21_15h51.58.073,Dog face experiment_fully sample_0-300,2021.1.4,MacIntel,59.99520038
,,,,,,q,1.1286,0,46,46,46,1,46,images/pixabay_dog_003305.jpg,images/flickr_dog_000083.jpg,Chenxi Liao,001,2021-06-21_15h51.58.073,Dog face experiment_fully sample_0-300,2021.1.4,MacIntel,59.99520038
,,,,,,p,1.5768,0,47,47,47,1,47,images/pixabay_dog_003604.jpg,images/pixabay_dog_000932.jpg,Chenxi Liao,001,2021-06-21_15h51.58.073,Dog face experiment_fully sample_0-300,2021.1.4,MacIntel,59.99520038
,,,,,,p,1.327,0,48,48,48,1,48,images/pixabay_dog_001712.jpg,images/flickr_dog_000232.jpg,Chenxi Liao,001,2021-06-21_15h51.58.073,Dog face experiment_fully sample_0-300,2021.1.4,MacIntel,59.99520038
,,,,,,q,1.1616,0,49,49,49,1,49,images/pixabay_dog_002899.jpg,images/pixabay_dog_000525.jpg,Chenxi Liao,001,2021-06-21_15h51.58.073,Dog face experiment_fully sample_0-300,2021.1.4,MacIntel,59.99520038
,,,,,,p,1.0112,0,50,50,50,1,50,images/pixabay_dog_000932.jpg,images/pixabay_dog_002989.jpg,Chenxi Liao,001,2021-06-21_15h51.58.073,Dog face experiment_fully sample_0-300,2021.1.4,MacIntel,59.99520038
,,,,,,q,1.3255,0,51,51,51,1,51,images/pixabay_dog_003971.jpg,images/flickr_dog_000083.jpg,Chenxi Liao,001,2021-06-21_15h51.58.073,Dog face experiment_fully sample_0-300,2021.1.4,MacIntel,59.99520038
,,,,,,p,1.9742,0,52,52,52,1,52,images/pixabay_dog_000042.jpg,images/pixabay_dog_002861.jpg,Chenxi Liao,001,2021-06-21_15h51.58.073,Dog face experiment_fully sample_0-300,2021.1.4,MacIntel,59.99520038
,,,,,,q,1.7918,0,53,53,53,1,53,images/pixabay_dog_003604.jpg,images/pixabay_dog_003829.jpg,Chenxi Liao,001,2021-06-21_15h51.58.073,Dog face experiment_fully sample_0-300,2021.1.4,MacIntel,59.99520038
,,,,,,p,1.0507,0,54,54,54,1,54,images/pixabay_dog_001524.jpg,images/pixabay_dog_001843.jpg,Chenxi Liao,001,2021-06-21_15h51.58.073,Dog face experiment_fully sample_0-300,2021.1.4,MacIntel,59.99520038
,,,,,,p,1.2455,0,55,55,55,1,55,images/flickr_dog_000083.jpg,images/flickr_dog_000194.jpg,Chenxi Liao,001,2021-06-21_15h51.58.073,Dog face experiment_fully sample_0-300,2021.1.4,MacIntel,59.99520038
,,,,,,p,1.93,0,56,56,56,1,56,images/pixabay_dog_003971.jpg,images/pixabay_dog_003604.jpg,Chenxi Liao,001,2021-06-21_15h51.58.073,Dog face experiment_fully sample_0-300,2021.1.4,MacIntel,59.99520038
,,,,,,q,1.1958,0,57,57,57,1,57,images/flickr_dog_000261.jpg,images/pixabay_dog_001712.jpg,Chenxi Liao,001,2021-06-21_15h51.58.073,Dog face experiment_fully sample_0-300,2021.1.4,MacIntel,59.99520038
,,,,,,p,1.127,0,58,58,58,1,58,images/pixabay_dog_000932.jpg,images/pixabay_dog_000825.jpg,Chenxi Liao,001,2021-06-21_15h51.58.073,Dog face experiment_fully sample_0-300,2021.1.4,MacIntel,59.99520038
,,,,,,q,0.9762,0,59,59,59,1,59,images/pixabay_dog_002360.jpg,images/pixabay_dog_002649.jpg,Chenxi Liao,001,2021-06-21_15h51.58.073,Dog face experiment_fully sample_0-300,2021.1.4,MacIntel,59.99520038
,,,,,,p,1.2952,0,60,60,60,1,60,images/pixabay_dog_000042.jpg,images/flickr_dog_000861.jpg,Chenxi Liao,001,2021-06-21_15h51.58.073,Dog face experiment_fully sample_0-300,2021.1.4,MacIntel,59.99520038
,,,,,,p,2.1092,0,61,61,61,1,61,images/pixabay_dog_001150.jpg,images/flickr_dog_000266.jpg,Chenxi Liao,001,2021-06-21_15h51.58.073,Dog face experiment_fully sample_0-300,2021.1.4,MacIntel,59.99520038
,,,,,,p,1.7463,0,62,62,62,1,62,images/pixabay_dog_003971.jpg,images/pixabay_dog_003859.jpg,Chenxi Liao,001,2021-06-21_15h51.58.073,Dog face experiment_fully sample_0-300,2021.1.4,MacIntel,59.99520038
,,,,,,p,0.7458,0,63,63,63,1,63,images/pixabay_dog_000042.jpg,images/flickr_dog_000201.jpg,Chenxi Liao,001,2021-06-21_15h51.58.073,Dog face experiment_fully sample_0-300,2021.1.4,MacIntel,59.99520038
,,,,,,p,1.1946,0,64,64,64,1,64,images/pixabay_dog_003604.jpg,images/pixabay_dog_001843.jpg,Chenxi Liao,001,2021-06-21_15h51.58.073,Dog face experiment_fully sample_0-300,2021.1.4,MacIntel,59.99520038
,,,,,,p,1.7649,0,65,65,65,1,65,images/pixabay_dog_002596.jpg,images/pixabay_dog_001843.jpg,Chenxi Liao,001,2021-06-21_15h51.58.073,Dog face experiment_fully sample_0-300,2021.1.4,MacIntel,59.99520038
,,,,,,q,2.3946,0,66,66,66,1,66,images/flickr_dog_000083.jpg,images/pixabay_dog_000853.jpg,Chenxi Liao,001,2021-06-21_15h51.58.073,Dog face experiment_fully sample_0-300,2021.1.4,MacIntel,59.99520038
,,,,,,p,1.6005,0,67,67,67,1,67,images/flickr_dog_000932.jpg,images/flickr_dog_000194.jpg,Chenxi Liao,001,2021-06-21_15h51.58.073,Dog face experiment_fully sample_0-300,2021.1.4,MacIntel,59.99520038
,,,,,,q,1.2916,0,68,68,68,1,68,images/pixabay_dog_001150.jpg,images/pixabay_dog_003310.jpg,Chenxi Liao,001,2021-06-21_15h51.58.073,Dog face experiment_fully sample_0-300,2021.1.4,MacIntel,59.99520038
,,,,,,p,1.4847,0,69,69,69,1,69,images/pixabay_dog_001960.jpg,images/flickr_dog_000913.jpg,Chenxi Liao,001,2021-06-21_15h51.58.073,Dog face experiment_fully sample_0-300,2021.1.4,MacIntel,59.99520038
,,,,,,q,2.0262,0,70,70,70,1,70,images/flickr_dog_000266.jpg,images/flickr_dog_000194.jpg,Chenxi Liao,001,2021-06-21_15h51.58.073,Dog face experiment_fully sample_0-300,2021.1.4,MacIntel,59.99520038
,,,,,,q,1.3,0,71,71,71,1,71,images/pixabay_dog_002360.jpg,images/flickr_dog_000279.jpg,Chenxi Liao,001,2021-06-21_15h51.58.073,Dog face experiment_fully sample_0-300,2021.1.4,MacIntel,59.99520038
,,,,,,q,2.2102,0,72,72,72,1,72,images/flickr_dog_000861.jpg,images/pixabay_dog_003829.jpg,Chenxi Liao,001,2021-06-21_15h51.58.073,Dog face experiment_fully sample_0-300,2021.1.4,MacIntel,59.99520038
,,,,,,p,0.9805,0,73,73,73,1,73,images/pixabay_dog_000042.jpg,images/flickr_dog_000194.jpg,Chenxi Liao,001,2021-06-21_15h51.58.073,Dog face experiment_fully sample_0-300,2021.1.4,MacIntel,59.99520038
,,,,,,p,0.9813,0,74,74,74,1,74,images/pixabay_dog_002744.jpg,images/pixabay_dog_000825.jpg,Chenxi Liao,001,2021-06-21_15h51.58.073,Dog face experiment_fully sample_0-300,2021.1.4,MacIntel,59.99520038
,,,,,,p,1.6686,0,75,75,75,1,75,images/flickr_dog_000232.jpg,images/pixabay_dog_003859.jpg,Chenxi Liao,001,2021-06-21_15h51.58.073,Dog face experiment_fully sample_0-300,2021.1.4,MacIntel,59.99520038
,,,,,,p,0.8,0,76,76,76,1,76,images/pixabay_dog_001255.jpg,images/pixabay_dog_003727.jpg,Chenxi Liao,001,2021-06-21_15h51.58.073,Dog face experiment_fully sample_0-300,2021.1.4,MacIntel,59.99520038
,,,,,,p,1.4087,0,77,77,77,1,77,images/flickr_dog_000566.jpg,images/pixabay_dog_001524.jpg,Chenxi Liao,001,2021-06-21_15h51.58.073,Dog face experiment_fully sample_0-300,2021.1.4,MacIntel,59.99520038
,,,,,,p,1.7255,0,78,78,78,1,78,images/pixabay_dog_000932.jpg,images/pixabay_dog_001465.jpg,Chenxi Liao,001,2021-06-21_15h51.58.073,Dog face experiment_fully sample_0-300,2021.1.4,MacIntel,59.99520038
,,,,,,p,0.9438,0,79,79,79,1,79,images/pixabay_dog_000853.jpg,images/pixabay_dog_002989.jpg,Chenxi Liao,001,2021-06-21_15h51.58.073,Dog face experiment_fully sample_0-300,2021.1.4,MacIntel,59.99520038
,,,,,,p,1.496,0,80,80,80,1,80,images/flickr_dog_000019.jpg,images/flickr_dog_000932.jpg,Chenxi Liao,001,2021-06-21_15h51.58.073,Dog face experiment_fully sample_0-300,2021.1.4,MacIntel,59.99520038
,,,,,,p,1.1764,0,81,81,81,1,81,images/flickr_dog_000232.jpg,images/pixabay_dog_000805.jpg,Chenxi Liao,001,2021-06-21_15h51.58.073,Dog face experiment_fully sample_0-300,2021.1.4,MacIntel,59.99520038
,,,,,,p,1.06,0,82,82,82,1,82,images/pixabay_dog_003971.jpg,images/pixabay_dog_002744.jpg,Chenxi Liao,001,2021-06-21_15h51.58.073,Dog face experiment_fully sample_0-300,2021.1.4,MacIntel,59.99520038
,,,,,,q,1.232,0,83,83,83,1,83,images/pixabay_dog_002268.jpg,images/pixabay_dog_001255.jpg,Chenxi Liao,001,2021-06-21_15h51.58.073,Dog face experiment_fully sample_0-300,2021.1.4,MacIntel,59.99520038
,,,,,,p,1.0287,0,84,84,84,1,84,images/pixabay_dog_000914.jpg,images/flickr_dog_000932.jpg,Chenxi Liao,001,2021-06-21_15h51.58.073,Dog face experiment_fully sample_0-300,2021.1.4,MacIntel,59.99520038
,,,,,,p,1.5949,0,85,85,85,1,85,images/pixabay_dog_002268.jpg,images/pixabay_dog_000853.jpg,Chenxi Liao,001,2021-06-21_15h51.58.073,Dog face experiment_fully sample_0-300,2021.1.4,MacIntel,59.99520038
,,,,,,p,1.5691,0,86,86,86,1,86,images/pixabay_dog_000525.jpg,images/pixabay_dog_001843.jpg,Chenxi Liao,001,2021-06-21_15h51.58.073,Dog face experiment_fully sample_0-300,2021.1.4,MacIntel,59.99520038
,,,,,,q,1.1433,0,87,87,87,1,87,images/pixabay_dog_003604.jpg,images/pixabay_dog_003859.jpg,Chenxi Liao,001,2021-06-21_15h51.58.073,Dog face experiment_fully sample_0-300,2021.1.4,MacIntel,59.99520038
,,,,,,p,0.8775,0,88,88,88,1,88,images/pixabay_dog_000914.jpg,images/pixabay_dog_000932.jpg,Chenxi Liao,001,2021-06-21_15h51.58.073,Dog face experiment_fully sample_0-300,2021.1.4,MacIntel,59.99520038
,,,,,,q,0.8611,0,89,89,89,1,89,images/pixabay_dog_003604.jpg,images/pixabay_dog_002793.jpg,Chenxi Liao,001,2021-06-21_15h51.58.073,Dog face experiment_fully sample_0-300,2021.1.4,MacIntel,59.99520038
,,,,,,p,0.9939,0,90,90,90,1,90,images/pixabay_dog_000042.jpg,images/pixabay_dog_003859.jpg,Chenxi Liao,001,2021-06-21_15h51.58.073,Dog face experiment_fully sample_0-300,2021.1.4,MacIntel,59.99520038
,,,,,,q,2.1306,0,91,91,91,1,91,images/pixabay_dog_003305.jpg,images/pixabay_dog_001712.jpg,Chenxi Liao,001,2021-06-21_15h51.58.073,Dog face experiment_fully sample_0-300,2021.1.4,MacIntel,59.99520038
,,,,,,q,1.555,0,92,92,92,1,92,images/flickr_dog_000566.jpg,images/pixabay_dog_000952.jpg,Chenxi Liao,001,2021-06-21_15h51.58.073,Dog face experiment_fully sample_0-300,2021.1.4,MacIntel,59.99520038
,,,,,,p,0.779,0,93,93,93,1,93,images/pixabay_dog_000853.jpg,images/pixabay_dog_003829.jpg,Chenxi Liao,001,2021-06-21_15h51.58.073,Dog face experiment_fully sample_0-300,2021.1.4,MacIntel,59.99520038
,,,,,,p,0.7814,0,94,94,94,1,94,images/pixabay_dog_000853.jpg,images/pixabay_dog_001465.jpg,Chenxi Liao,001,2021-06-21_15h51.58.073,Dog face experiment_fully sample_0-300,2021.1.4,MacIntel,59.99520038
,,,,,,q,1.0322,0,95,95,95,1,95,images/pixabay_dog_003098.jpg,images/pixabay_dog_000525.jpg,Chenxi Liao,001,2021-06-21_15h51.58.073,Dog face experiment_fully sample_0-300,2021.1.4,MacIntel,59.99520038
,,,,,,q,1.0488,0,96,96,96,1,96,images/flickr_dog_000019.jpg,images/pixabay_dog_000932.jpg,Chenxi Liao,001,2021-06-21_15h51.58.073,Dog face experiment_fully sample_0-300,2021.1.4,MacIntel,59.99520038
,,,,,,p,1.3484,0,97,97,97,1,97,images/pixabay_dog_003305.jpg,images/pixabay_dog_001843.jpg,Chenxi Liao,001,2021-06-21_15h51.58.073,Dog face experiment_fully sample_0-300,2021.1.4,MacIntel,59.99520038
,,,,,,p,2.4936,0,98,98,98,1,98,images/pixabay_dog_003098.jpg,images/flickr_dog_000913.jpg,Chenxi Liao,001,2021-06-21_15h51.58.073,Dog face experiment_fully sample_0-300,2021.1.4,MacIntel,59.99520038
,,,,,,p,0.7962,0,99,99,99,1,99,images/flickr_dog_000566.jpg,images/pixabay_dog_001843.jpg,Chenxi Liao,001,2021-06-21_15h51.58.073,Dog face experiment_fully sample_0-300,2021.1.4,MacIntel,59.99520038
,,,,,,p,1.4949,0,100,100,100,1,100,images/pixabay_dog_003305.jpg,images/flickr_dog_000019.jpg,Chenxi Liao,001,2021-06-21_15h51.58.073,Dog face experiment_fully sample_0-300,2021.1.4,MacIntel,59.99520038
,,,,,,p,0.8688,0,101,101,101,1,101,images/pixabay_dog_003305.jpg,images/flickr_dog_000261.jpg,Chenxi Liao,001,2021-06-21_15h51.58.073,Dog face experiment_fully sample_0-300,2021.1.4,MacIntel,59.99520038
,,,,,,q,1.4942,0,102,102,102,1,102,images/flickr_dog_000266.jpg,images/pixabay_dog_003859.jpg,Chenxi Liao,001,2021-06-21_15h51.58.073,Dog face experiment_fully sample_0-300,2021.1.4,MacIntel,59.99520038
,,,,,,p,0.699,0,103,103,103,1,103,images/pixabay_dog_000042.jpg,images/pixabay_dog_000932.jpg,Chenxi Liao,001,2021-06-21_15h51.58.073,Dog face experiment_fully sample_0-300,2021.1.4,MacIntel,59.99520038
,,,,,,q,1.0444,0,104,104,104,1,104,images/pixabay_dog_001712.jpg,images/pixabay_dog_003604.jpg,Chenxi Liao,001,2021-06-21_15h51.58.073,Dog face experiment_fully sample_0-300,2021.1.4,MacIntel,59.99520038
,,,,,,p,1.2265,0,105,105,105,1,105,images/pixabay_dog_002268.jpg,images/pixabay_dog_000525.jpg,Chenxi Liao,001,2021-06-21_15h51.58.073,Dog face experiment_fully sample_0-300,2021.1.4,MacIntel,59.99520038
,,,,,,p,1.0004,0,106,106,106,1,106,images/pixabay_dog_000525.jpg,images/pixabay_dog_001524.jpg,Chenxi Liao,001,2021-06-21_15h51.58.073,Dog face experiment_fully sample_0-300,2021.1.4,MacIntel,59.99520038
,,,,,,q,1.6144,0,107,107,107,1,107,images/pixabay_dog_000805.jpg,images/pixabay_dog_003310.jpg,Chenxi Liao,001,2021-06-21_15h51.58.073,Dog face experiment_fully sample_0-300,2021.1.4,MacIntel,59.99520038
,,,,,,p,0.9173,0,108,108,108,1,108,images/pixabay_dog_001960.jpg,images/pixabay_dog_000825.jpg,Chenxi Liao,001,2021-06-21_15h51.58.073,Dog face experiment_fully sample_0-300,2021.1.4,MacIntel,59.99520038
,,,,,,p,0.9716,0,109,109,109,1,109,images/pixabay_dog_002282.jpg,images/pixabay_dog_000825.jpg,Chenxi Liao,001,2021-06-21_15h51.58.073,Dog face experiment_fully sample_0-300,2021.1.4,MacIntel,59.99520038
,,,,,,q,0.9257,0,110,110,110,1,110,images/flickr_dog_000932.jpg,images/pixabay_dog_002649.jpg,Chenxi Liao,001,2021-06-21_15h51.58.073,Dog face experiment_fully sample_0-300,2021.1.4,MacIntel,59.99520038
,,,,,,q,1.3773,0,111,111,111,1,111,images/pixabay_dog_002268.jpg,images/pixabay_dog_000932.jpg,Chenxi Liao,001,2021-06-21_15h51.58.073,Dog face experiment_fully sample_0-300,2021.1.4,MacIntel,59.99520038
,,,,,,q,0.927,0,112,112,112,1,112,images/pixabay_dog_001150.jpg,images/pixabay_dog_003727.jpg,Chenxi Liao,001,2021-06-21_15h51.58.073,Dog face experiment_fully sample_0-300,2021.1.4,MacIntel,59.99520038
,,,,,,p,2.5254,0,113,113,113,1,113,images/pixabay_dog_003829.jpg,images/pixabay_dog_001465.jpg,Chenxi Liao,001,2021-06-21_15h51.58.073,Dog face experiment_fully sample_0-300,2021.1.4,MacIntel,59.99520038
,,,,,,p,0.8794,0,114,114,114,1,114,images/flickr_dog_000232.jpg,images/pixabay_dog_003604.jpg,Chenxi Liao,001,2021-06-21_15h51.58.073,Dog face experiment_fully sample_0-300,2021.1.4,MacIntel,59.99520038
,,,,,,q,1.3008,0,115,115,115,1,115,images/pixabay_dog_002360.jpg,images/pixabay_dog_003604.jpg,Chenxi Liao,001,2021-06-21_15h51.58.073,Dog face experiment_fully sample_0-300,2021.1.4,MacIntel,59.99520038
,,,,,,p,1.0812,0,116,116,116,1,116,images/pixabay_dog_003604.jpg,images/pixabay_dog_003357.jpg,Chenxi Liao,001,2021-06-21_15h51.58.073,Dog face experiment_fully sample_0-300,2021.1.4,MacIntel,59.99520038
,,,,,,q,1.3665,0,117,117,117,1,117,images/pixabay_dog_003305.jpg,images/pixabay_dog_000853.jpg,Chenxi Liao,001,2021-06-21_15h51.58.073,Dog face experiment_fully sample_0-300,2021.1.4,MacIntel,59.99520038
,,,,,,p,0.6618,0,118,118,118,1,118,images/pixabay_dog_001255.jpg,images/pixabay_dog_000825.jpg,Chenxi Liao,001,2021-06-21_15h51.58.073,Dog face experiment_fully sample_0-300,2021.1.4,MacIntel,59.99520038
,,,,,,p,1.8989,0,119,119,119,1,119,images/pixabay_dog_002793.jpg,images/flickr_dog_001107.jpg,Chenxi Liao,001,2021-06-21_15h51.58.073,Dog face experiment_fully sample_0-300,2021.1.4,MacIntel,59.99520038
,,,,,,q,1.4945,0,120,120,120,1,120,images/flickr_dog_000232.jpg,images/pixabay_dog_003829.jpg,Chenxi Liao,001,2021-06-21_15h51.58.073,Dog face experiment_fully sample_0-300,2021.1.4,MacIntel,59.99520038
,,,,,,q,1.2821,0,121,121,121,1,121,images/pixabay_dog_002793.jpg,images/pixabay_dog_003310.jpg,Chenxi Liao,001,2021-06-21_15h51.58.073,Dog face experiment_fully sample_0-300,2021.1.4,MacIntel,59.99520038
,,,,,,p,0.7494,0,122,122,122,1,122,images/pixabay_dog_001960.jpg,images/pixabay_dog_003859.jpg,Chenxi Liao,001,2021-06-21_15h51.58.073,Dog face experiment_fully sample_0-300,2021.1.4,MacIntel,59.99520038
,,,,,,p,1.0452,0,123,123,123,1,123,images/pixabay_dog_003098.jpg,images/pixabay_dog_002861.jpg,Chenxi Liao,001,2021-06-21_15h51.58.073,Dog face experiment_fully sample_0-300,2021.1.4,MacIntel,59.99520038
,,,,,,q,1.4673,0,124,124,124,1,124,images/pixabay_dog_000914.jpg,images/pixabay_dog_003310.jpg,Chenxi Liao,001,2021-06-21_15h51.58.073,Dog face experiment_fully sample_0-300,2021.1.4,MacIntel,59.99520038
,,,,,,p,1.0793,0,125,125,125,1,125,images/pixabay_dog_003098.jpg,images/flickr_dog_000932.jpg,Chenxi Liao,001,2021-06-21_15h51.58.073,Dog face experiment_fully sample_0-300,2021.1.4,MacIntel,59.99520038
,,,,,,p,1.294,0,126,126,126,1,126,images/flickr_dog_000083.jpg,images/pixabay_dog_002989.jpg,Chenxi Liao,001,2021-06-21_15h51.58.073,Dog face experiment_fully sample_0-300,2021.1.4,MacIntel,59.99520038
,,,,,,p,1.0448,0,127,127,127,1,127,images/pixabay_dog_003238.jpg,images/flickr_dog_000932.jpg,Chenxi Liao,001,2021-06-21_15h51.58.073,Dog face experiment_fully sample_0-300,2021.1.4,MacIntel,59.99520038
,,,,,,p,1.2015,0,128,128,128,1,128,images/pixabay_dog_002649.jpg,images/flickr_dog_000913.jpg,Chenxi Liao,001,2021-06-21_15h51.58.073,Dog face experiment_fully sample_0-300,2021.1.4,MacIntel,59.99520038
,,,,,,p,4.5134,0,129,129,129,1,129,images/pixabay_dog_002360.jpg,images/pixabay_dog_000825.jpg,Chenxi Liao,001,2021-06-21_15h51.58.073,Dog face experiment_fully sample_0-300,2021.1.4,MacIntel,59.99520038
,,,,,,q,1.6173,0,130,130,130,1,130,images/pixabay_dog_001843.jpg,images/pixabay_dog_003357.jpg,Chenxi Liao,001,2021-06-21_15h51.58.073,Dog face experiment_fully sample_0-300,2021.1.4,MacIntel,59.99520038
,,,,,,q,1.4445,0,131,131,131,1,131,images/pixabay_dog_002989.jpg,images/pixabay_dog_001524.jpg,Chenxi Liao,001,2021-06-21_15h51.58.073,Dog face experiment_fully sample_0-300,2021.1.4,MacIntel,59.99520038
,,,,,,q,1.8768,0,132,132,132,1,132,images/pixabay_dog_000042.jpg,images/pixabay_dog_003305.jpg,Chenxi Liao,001,2021-06-21_15h51.58.073,Dog face experiment_fully sample_0-300,2021.1.4,MacIntel,59.99520038
,,,,,,q,1.1775,0,133,133,133,1,133,images/flickr_dog_001079.jpg,images/pixabay_dog_003098.jpg,Chenxi Liao,001,2021-06-21_15h51.58.073,Dog face experiment_fully sample_0-300,2021.1.4,MacIntel,59.99520038
,,,,,,p,0.745,0,134,134,134,1,134,images/pixabay_dog_000042.jpg,images/pixabay_dog_002268.jpg,Chenxi Liao,001,2021-06-21_15h51.58.073,Dog face experiment_fully sample_0-300,2021.1.4,MacIntel,59.99520038
,,,,,,p,0.9297,0,135,135,135,1,135,images/pixabay_dog_003971.jpg,images/pixabay_dog_000525.jpg,Chenxi Liao,001,2021-06-21_15h51.58.073,Dog face experiment_fully sample_0-300,2021.1.4,MacIntel,59.99520038
,,,,,,p,0.931,0,136,136,136,1,136,images/flickr_dog_000279.jpg,images/flickr_dog_000913.jpg,Chenxi Liao,001,2021-06-21_15h51.58.073,Dog face experiment_fully sample_0-300,2021.1.4,MacIntel,59.99520038
,,,,,,p,1.2709,0,137,137,137,1,137,images/pixabay_dog_000825.jpg,images/flickr_dog_001107.jpg,Chenxi Liao,001,2021-06-21_15h51.58.073,Dog face experiment_fully sample_0-300,2021.1.4,MacIntel,59.99520038
,,,,,,q,1.4283,0,138,138,138,1,138,images/pixabay_dog_002899.jpg,images/pixabay_dog_003238.jpg,Chenxi Liao,001,2021-06-21_15h51.58.073,Dog face experiment_fully sample_0-300,2021.1.4,MacIntel,59.99520038
,,,,,,p,1.3936,0,139,139,139,1,139,images/pixabay_dog_002268.jpg,images/flickr_dog_000261.jpg,Chenxi Liao,001,2021-06-21_15h51.58.073,Dog face experiment_fully sample_0-300,2021.1.4,MacIntel,59.99520038
,,,,,,p,0.9976,0,140,140,140,1,140,images/flickr_dog_000201.jpg,images/pixabay_dog_001843.jpg,Chenxi Liao,001,2021-06-21_15h51.58.073,Dog face experiment_fully sample_0-300,2021.1.4,MacIntel,59.99520038
,,,,,,q,0.7597,0,141,141,141,1,141,images/flickr_dog_000019.jpg,images/pixabay_dog_000952.jpg,Chenxi Liao,001,2021-06-21_15h51.58.073,Dog face experiment_fully sample_0-300,2021.1.4,MacIntel,59.99520038
,,,,,,p,0.7251,0,142,142,142,1,142,images/pixabay_dog_003604.jpg,images/flickr_dog_000194.jpg,Chenxi Liao,001,2021-06-21_15h51.58.073,Dog face experiment_fully sample_0-300,2021.1.4,MacIntel,59.99520038
,,,,,,q,1.216,0,143,143,143,1,143,images/pixabay_dog_000825.jpg,images/pixabay_dog_003357.jpg,Chenxi Liao,001,2021-06-21_15h51.58.073,Dog face experiment_fully sample_0-300,2021.1.4,MacIntel,59.99520038
,,,,,,q,1.2098,0,144,144,144,1,144,images/pixabay_dog_003305.jpg,images/flickr_dog_000861.jpg,Chenxi Liao,001,2021-06-21_15h51.58.073,Dog face experiment_fully sample_0-300,2021.1.4,MacIntel,59.99520038
,,,,,,p,0.9597,0,145,145,145,1,145,images/flickr_dog_000566.jpg,images/pixabay_dog_000805.jpg,Chenxi Liao,001,2021-06-21_15h51.58.073,Dog face experiment_fully sample_0-300,2021.1.4,MacIntel,59.99520038
,,,,,,q,2.1317,0,146,146,146,1,146,images/pixabay_dog_000914.jpg,images/pixabay_dog_003829.jpg,Chenxi Liao,001,2021-06-21_15h51.58.073,Dog face experiment_fully sample_0-300,2021.1.4,MacIntel,59.99520038
,,,,,,q,1.149,0,147,147,147,1,147,images/flickr_dog_001079.jpg,images/flickr_dog_000861.jpg,Chenxi Liao,001,2021-06-21_15h51.58.073,Dog face experiment_fully sample_0-300,2021.1.4,MacIntel,59.99520038
,,,,,,q,1.3505,0,148,148,148,1,148,images/flickr_dog_000261.jpg,images/pixabay_dog_001255.jpg,Chenxi Liao,001,2021-06-21_15h51.58.073,Dog face experiment_fully sample_0-300,2021.1.4,MacIntel,59.99520038
,,,,,,p,1.2097,0,149,149,149,1,149,images/pixabay_dog_002899.jpg,images/pixabay_dog_000825.jpg,Chenxi Liao,001,2021-06-21_15h51.58.073,Dog face experiment_fully sample_0-300,2021.1.4,MacIntel,59.99520038
,,,,,,p,0.8451,0,150,150,150,1,150,images/flickr_dog_000279.jpg,images/pixabay_dog_003727.jpg,Chenxi Liao,001,2021-06-21_15h51.58.073,Dog face experiment_fully sample_0-300,2021.1.4,MacIntel,59.99520038
,,,,,,q,1.5608,0,151,151,151,1,151,images/pixabay_dog_000952.jpg,images/pixabay_dog_001960.jpg,Chenxi Liao,001,2021-06-21_15h51.58.073,Dog face experiment_fully sample_0-300,2021.1.4,MacIntel,59.99520038
,,,,,,p,0.9431,0,152,152,152,1,152,images/pixabay_dog_001255.jpg,images/pixabay_dog_000853.jpg,Chenxi Liao,001,2021-06-21_15h51.58.073,Dog face experiment_fully sample_0-300,2021.1.4,MacIntel,59.99520038
,,,,,,q,1.1969,0,153,153,153,1,153,images/flickr_dog_000279.jpg,images/pixabay_dog_002649.jpg,Chenxi Liao,001,2021-06-21_15h51.58.073,Dog face experiment_fully sample_0-300,2021.1.4,MacIntel,59.99520038
,,,,,,q,1.6123,0,154,154,154,1,154,images/flickr_dog_000932.jpg,images/pixabay_dog_003310.jpg,Chenxi Liao,001,2021-06-21_15h51.58.073,Dog face experiment_fully sample_0-300,2021.1.4,MacIntel,59.99520038
,,,,,,q,2.2456,0,155,155,155,1,155,images/flickr_dog_000261.jpg,images/pixabay_dog_000914.jpg,Chenxi Liao,001,2021-06-21_15h51.58.073,Dog face experiment_fully sample_0-300,2021.1.4,MacIntel,59.99520038
,,,,,,p,1.4589,0,156,156,156,1,156,images/pixabay_dog_000805.jpg,images/flickr_dog_001107.jpg,Chenxi Liao,001,2021-06-21_15h51.58.073,Dog face experiment_fully sample_0-300,2021.1.4,MacIntel,59.99520038
,,,,,,q,1.3472,0,157,157,157,1,157,images/pixabay_dog_003305.jpg,images/pixabay_dog_001524.jpg,Chenxi Liao,001,2021-06-21_15h51.58.073,Dog face experiment_fully sample_0-300,2021.1.4,MacIntel,59.99520038
,,,,,,q,1.277,0,158,158,158,1,158,images/pixabay_dog_002899.jpg,images/pixabay_dog_002282.jpg,Chenxi Liao,001,2021-06-21_15h51.58.073,Dog face experiment_fully sample_0-300,2021.1.4,MacIntel,59.99520038
,,,,,,q,1.295,0,159,159,159,1,159,images/pixabay_dog_003305.jpg,images/flickr_dog_000194.jpg,Chenxi Liao,001,2021-06-21_15h51.58.073,Dog face experiment_fully sample_0-300,2021.1.4,MacIntel,59.99520038
,,,,,,q,1.7559,0,160,160,160,1,160,images/pixabay_dog_000853.jpg,images/flickr_dog_000194.jpg,Chenxi Liao,001,2021-06-21_15h51.58.073,Dog face experiment_fully sample_0-300,2021.1.4,MacIntel,59.99520038
,,,,,,q,2.0113,0,161,161,161,1,161,images/flickr_dog_000279.jpg,images/pixabay_dog_000932.jpg,Chenxi Liao,001,2021-06-21_15h51.58.073,Dog face experiment_fully sample_0-300,2021.1.4,MacIntel,59.99520038
,,,,,,p,1.0604,0,162,162,162,1,162,images/pixabay_dog_002360.jpg,images/pixabay_dog_002596.jpg,Chenxi Liao,001,2021-06-21_15h51.58.073,Dog face experiment_fully sample_0-300,2021.1.4,MacIntel,59.99520038
,,,,,,q,1.1794,0,163,163,163,1,163,images/pixabay_dog_002793.jpg,images/pixabay_dog_003829.jpg,Chenxi Liao,001,2021-06-21_15h51.58.073,Dog face experiment_fully sample_0-300,2021.1.4,MacIntel,59.99520038
,,,,,,p,0.9511,0,164,164,164,1,164,images/pixabay_dog_002793.jpg,images/pixabay_dog_001465.jpg,Chenxi Liao,001,2021-06-21_15h51.58.073,Dog face experiment_fully sample_0-300,2021.1.4,MacIntel,59.99520038
,,,,,,p,1.253,0,165,165,165,1,165,images/pixabay_dog_003829.jpg,images/pixabay_dog_003357.jpg,Chenxi Liao,001,2021-06-21_15h51.58.073,Dog face experiment_fully sample_0-300,2021.1.4,MacIntel,59.99520038
,,,,,,q,0.9135,0,166,166,166,1,166,images/flickr_dog_000019.jpg,images/flickr_dog_000232.jpg,Chenxi Liao,001,2021-06-21_15h51.58.073,Dog face experiment_fully sample_0-300,2021.1.4,MacIntel,59.99520038
,,,,,,q,0.9439,0,167,167,167,1,167,images/pixabay_dog_002899.jpg,images/pixabay_dog_001960.jpg,Chenxi Liao,001,2021-06-21_15h51.58.073,Dog face experiment_fully sample_0-300,2021.1.4,MacIntel,59.99520038
,,,,,,p,1.366,0,168,168,168,1,168,images/pixabay_dog_002360.jpg,images/pixabay_dog_003859.jpg,Chenxi Liao,001,2021-06-21_15h51.58.073,Dog face experiment_fully sample_0-300,2021.1.4,MacIntel,59.99520038
,,,,,,p,0.9312,0,169,169,169,1,169,images/pixabay_dog_003604.jpg,images/pixabay_dog_002989.jpg,Chenxi Liao,001,2021-06-21_15h51.58.073,Dog face experiment_fully sample_0-300,2021.1.4,MacIntel,59.99520038
,,,,,,q,0.8471,0,170,170,170,1,170,images/flickr_dog_001079.jpg,images/pixabay_dog_001960.jpg,Chenxi Liao,001,2021-06-21_15h51.58.073,Dog face experiment_fully sample_0-300,2021.1.4,MacIntel,59.99520038
,,,,,,q,0.9788,0,171,171,171,1,171,images/flickr_dog_000266.jpg,images/pixabay_dog_002596.jpg,Chenxi Liao,001,2021-06-21_15h51.58.073,Dog face experiment_fully sample_0-300,2021.1.4,MacIntel,59.99520038
,,,,,,p,0.8265,0,172,172,172,1,172,images/pixabay_dog_000744.jpg,images/pixabay_dog_001712.jpg,Chenxi Liao,001,2021-06-21_15h51.58.073,Dog face experiment_fully sample_0-300,2021.1.4,MacIntel,59.99520038
,,,,,,p,0.7769,0,173,173,173,1,173,images/pixabay_dog_000042.jpg,images/pixabay_dog_001843.jpg,Chenxi Liao,001,2021-06-21_15h51.58.073,Dog face experiment_fully sample_0-300,2021.1.4,MacIntel,59.99520038
,,,,,,p,0.7418,0,174,174,174,1,174,images/pixabay_dog_003238.jpg,images/pixabay_dog_000825.jpg,Chenxi Liao,001,2021-06-21_15h51.58.073,Dog face experiment_fully sample_0-300,2021.1.4,MacIntel,59.99520038
,,,,,,p,0.8649,0,175,175,175,1,175,images/pixabay_dog_002282.jpg,images/pixabay_dog_001465.jpg,Chenxi Liao,001,2021-06-21_15h51.58.073,Dog face experiment_fully sample_0-300,2021.1.4,MacIntel,59.99520038
,,,,,,p,0.8779,0,176,176,176,1,176,images/pixabay_dog_003238.jpg,images/flickr_dog_000913.jpg,Chenxi Liao,001,2021-06-21_15h51.58.073,Dog face experiment_fully sample_0-300,2021.1.4,MacIntel,59.99520038
,,,,,,q,1.0119,0,177,177,177,1,177,images/pixabay_dog_003098.jpg,images/pixabay_dog_001255.jpg,Chenxi Liao,001,2021-06-21_15h51.58.073,Dog face experiment_fully sample_0-300,2021.1.4,MacIntel,59.99520038
,,,,,,p,0.9625,0,178,178,178,1,178,images/flickr_dog_000913.jpg,images/pixabay_dog_001843.jpg,Chenxi Liao,001,2021-06-21_15h51.58.073,Dog face experiment_fully sample_0-300,2021.1.4,MacIntel,59.99520038
,,,,,,p,0.8653,0,179,179,179,1,179,images/pixabay_dog_001255.jpg,images/flickr_dog_000279.jpg,Chenxi Liao,001,2021-06-21_15h51.58.073,Dog face experiment_fully sample_0-300,2021.1.4,MacIntel,59.99520038
,,,,,,p,1.214,0,180,180,180,1,180,images/pixabay_dog_002793.jpg,images/flickr_dog_000913.jpg,Chenxi Liao,001,2021-06-21_15h51.58.073,Dog face experiment_fully sample_0-300,2021.1.4,MacIntel,59.99520038
,,,,,,p,1.0348,0,181,181,181,1,181,images/pixabay_dog_003971.jpg,images/pixabay_dog_003829.jpg,Chenxi Liao,001,2021-06-21_15h51.58.073,Dog face experiment_fully sample_0-300,2021.1.4,MacIntel,59.99520038
,,,,,,p,0.9125,0,182,182,182,1,182,images/pixabay_dog_003238.jpg,images/pixabay_dog_000525.jpg,Chenxi Liao,001,2021-06-21_15h51.58.073,Dog face experiment_fully sample_0-300,2021.1.4,MacIntel,59.99520038
,,,,,,p,0.9756,0,183,183,183,1,183,images/flickr_dog_000266.jpg,images/pixabay_dog_000825.jpg,Chenxi Liao,001,2021-06-21_15h51.58.073,Dog face experiment_fully sample_0-300,2021.1.4,MacIntel,59.99520038
,,,,,,q,0.7946,0,184,184,184,1,184,images/flickr_dog_000261.jpg,images/flickr_dog_000232.jpg,Chenxi Liao,001,2021-06-21_15h51.58.073,Dog face experiment_fully sample_0-300,2021.1.4,MacIntel,59.99520038
,,,,,,p,1.5134,0,185,185,185,1,185,images/pixabay_dog_002360.jpg,images/pixabay_dog_002793.jpg,Chenxi Liao,001,2021-06-21_15h51.58.073,Dog face experiment_fully sample_0-300,2021.1.4,MacIntel,59.99520038
,,,,,,q,1.0101,0,186,186,186,1,186,images/flickr_dog_000279.jpg,images/pixabay_dog_003829.jpg,Chenxi Liao,001,2021-06-21_15h51.58.073,Dog face experiment_fully sample_0-300,2021.1.4,MacIntel,59.99520038
,,,,,,p,0.8683,0,187,187,187,1,187,images/pixabay_dog_001255.jpg,images/pixabay_dog_001524.jpg,Chenxi Liao,001,2021-06-21_15h51.58.073,Dog face experiment_fully sample_0-300,2021.1.4,MacIntel,59.99520038
,,,,,,p,1.0484,0,188,188,188,1,188,images/pixabay_dog_002649.jpg,images/pixabay_dog_001465.jpg,Chenxi Liao,001,2021-06-21_15h51.58.073,Dog face experiment_fully sample_0-300,2021.1.4,MacIntel,59.99520038
,,,,,,p,1.2679,0,189,189,189,1,189,images/pixabay_dog_001712.jpg,images/pixabay_dog_000825.jpg,Chenxi Liao,001,2021-06-21_15h51.58.073,Dog face experiment_fully sample_0-300,2021.1.4,MacIntel,59.99520038
,,,,,,q,1.367,0,190,190,190,1,190,images/pixabay_dog_002744.jpg,images/pixabay_dog_000932.jpg,Chenxi Liao,001,2021-06-21_15h51.58.073,Dog face experiment_fully sample_0-300,2021.1.4,MacIntel,59.99520038
,,,,,,p,0.7777,0,191,191,191,1,191,images/pixabay_dog_003310.jpg,images/flickr_dog_001107.jpg,Chenxi Liao,001,2021-06-21_15h51.58.073,Dog face experiment_fully sample_0-300,2021.1.4,MacIntel,59.99520038
,,,,,,q,0.8639,0,192,192,192,1,192,images/flickr_dog_000266.jpg,images/pixabay_dog_000853.jpg,Chenxi Liao,001,2021-06-21_15h51.58.073,Dog face experiment_fully sample_0-300,2021.1.4,MacIntel,59.99520038
,,,,,,p,1.0114,0,193,193,193,1,193,images/pixabay_dog_000853.jpg,images/pixabay_dog_002596.jpg,Chenxi Liao,001,2021-06-21_15h51.58.073,Dog face experiment_fully sample_0-300,2021.1.4,MacIntel,59.99520038
,,,,,,p,1.0824,0,194,194,194,1,194,images/pixabay_dog_000952.jpg,images/pixabay_dog_000932.jpg,Chenxi Liao,001,2021-06-21_15h51.58.073,Dog face experiment_fully sample_0-300,2021.1.4,MacIntel,59.99520038
,,,,,,p,0.7596,0,195,195,195,1,195,images/flickr_dog_000861.jpg,images/pixabay_dog_003859.jpg,Chenxi Liao,001,2021-06-21_15h51.58.073,Dog face experiment_fully sample_0-300,2021.1.4,MacIntel,59.99520038
,,,,,,p,1.4649,0,196,196,196,1,196,images/pixabay_dog_001150.jpg,images/pixabay_dog_002989.jpg,Chenxi Liao,001,2021-06-21_15h51.58.073,Dog face experiment_fully sample_0-300,2021.1.4,MacIntel,59.99520038
,,,,,,p,1.3811,0,197,197,197,1,197,images/pixabay_dog_002360.jpg,images/pixabay_dog_000853.jpg,Chenxi Liao,001,2021-06-21_15h51.58.073,Dog face experiment_fully sample_0-300,2021.1.4,MacIntel,59.99520038
,,,,,,q,0.0174,0,198,198,198,1,198,images/pixabay_dog_000042.jpg,images/pixabay_dog_000525.jpg,Chenxi Liao,001,2021-06-21_15h51.58.073,Dog face experiment_fully sample_0-300,2021.1.4,MacIntel,59.99520038
,,,,,,p,2.4973,0,199,199,199,1,199,images/pixabay_dog_002744.jpg,images/pixabay_dog_003859.jpg,Chenxi Liao,001,2021-06-21_15h51.58.073,Dog face experiment_fully sample_0-300,2021.1.4,MacIntel,59.99520038
,,,,,,q,3.3185,0,200,200,200,1,200,images/pixabay_dog_002744.jpg,images/pixabay_dog_003604.jpg,Chenxi Liao,001,2021-06-21_15h51.58.073,Dog face experiment_fully sample_0-300,2021.1.4,MacIntel,59.99520038
,,,,,,p,1.5495,0,201,201,201,1,201,images/pixabay_dog_001960.jpg,images/pixabay_dog_003357.jpg,Chenxi Liao,001,2021-06-21_15h51.58.073,Dog face experiment_fully sample_0-300,2021.1.4,MacIntel,59.99520038
,,,,,,q,1.4002,0,202,202,202,1,202,images/pixabay_dog_002649.jpg,images/pixabay_dog_000952.jpg,Chenxi Liao,001,2021-06-21_15h51.58.073,Dog face experiment_fully sample_0-300,2021.1.4,MacIntel,59.99520038
,,,,,,p,0.9995,0,203,203,203,1,203,images/pixabay_dog_003238.jpg,images/flickr_dog_000232.jpg,Chenxi Liao,001,2021-06-21_15h51.58.073,Dog face experiment_fully sample_0-300,2021.1.4,MacIntel,59.99520038
,,,,,,q,0.9942,0,204,204,204,1,204,images/flickr_dog_001079.jpg,images/pixabay_dog_002793.jpg,Chenxi Liao,001,2021-06-21_15h51.58.073,Dog face experiment_fully sample_0-300,2021.1.4,MacIntel,59.99520038
,,,,,,p,0.7455,0,205,205,205,1,205,images/pixabay_dog_003971.jpg,images/pixabay_dog_001960.jpg,Chenxi Liao,001,2021-06-21_15h51.58.073,Dog face experiment_fully sample_0-300,2021.1.4,MacIntel,59.99520038
,,,,,,p,2.4945,0,206,206,206,1,206,images/pixabay_dog_001712.jpg,images/flickr_dog_000194.jpg,Chenxi Liao,001,2021-06-21_15h51.58.073,Dog face experiment_fully sample_0-300,2021.1.4,MacIntel,59.99520038
,,,,,,q,0.9253,0,207,207,207,1,207,images/flickr_dog_000261.jpg,images/pixabay_dog_001960.jpg,Chenxi Liao,001,2021-06-21_15h51.58.073,Dog face experiment_fully sample_0-300,2021.1.4,MacIntel,59.99520038
,,,,,,q,1.028,0,208,208,208,1,208,images/pixabay_dog_003305.jpg,images/pixabay_dog_002649.jpg,Chenxi Liao,001,2021-06-21_15h51.58.073,Dog face experiment_fully sample_0-300,2021.1.4,MacIntel,59.99520038
,,,,,,p,1.3606,0,209,209,209,1,209,images/pixabay_dog_002744.jpg,images/flickr_dog_000019.jpg,Chenxi Liao,001,2021-06-21_15h51.58.073,Dog face experiment_fully sample_0-300,2021.1.4,MacIntel,59.99520038
,,,,,,p,1.0094,0,210,210,210,1,210,images/pixabay_dog_003238.jpg,images/pixabay_dog_000805.jpg,Chenxi Liao,001,2021-06-21_15h51.58.073,Dog face experiment_fully sample_0-300,2021.1.4,MacIntel,59.99520038
,,,,,,p,1.5794,0,211,211,211,1,211,images/flickr_dog_000566.jpg,images/flickr_dog_000083.jpg,Chenxi Liao,001,2021-06-21_15h51.58.073,Dog face experiment_fully sample_0-300,2021.1.4,MacIntel,59.99520038
,,,,,,p,1.0991,0,212,212,212,1,212,images/pixabay_dog_003098.jpg,images/flickr_dog_000019.jpg,Chenxi Liao,001,2021-06-21_15h51.58.073,Dog face experiment_fully sample_0-300,2021.1.4,MacIntel,59.99520038
,,,,,,q,1.0629,0,213,213,213,1,213,images/pixabay_dog_000914.jpg,images/pixabay_dog_002649.jpg,Chenxi Liao,001,2021-06-21_15h51.58.073,Dog face experiment_fully sample_0-300,2021.1.4,MacIntel,59.99520038
,,,,,,q,0.8767,0,214,214,214,1,214,images/flickr_dog_000266.jpg,images/pixabay_dog_003310.jpg,Chenxi Liao,001,2021-06-21_15h51.58.073,Dog face experiment_fully sample_0-300,2021.1.4,MacIntel,59.99520038
,,,,,,q,1.2769,0,215,215,215,1,215,images/flickr_dog_000279.jpg,images/pixabay_dog_000952.jpg,Chenxi Liao,001,2021-06-21_15h51.58.073,Dog face experiment_fully sample_0-300,2021.1.4,MacIntel,59.99520038
,,,,,,p,0.9627,0,216,216,216,1,216,images/flickr_dog_000279.jpg,images/flickr_dog_001107.jpg,Chenxi Liao,001,2021-06-21_15h51.58.073,Dog face experiment_fully sample_0-300,2021.1.4,MacIntel,59.99520038
,,,,,,p,0.8634,0,217,217,217,1,217,images/pixabay_dog_003098.jpg,images/flickr_dog_001107.jpg,Chenxi Liao,001,2021-06-21_15h51.58.073,Dog face experiment_fully sample_0-300,2021.1.4,MacIntel,59.99520038
,,,,,,p,0.9847,0,218,218,218,1,218,images/pixabay_dog_000805.jpg,images/pixabay_dog_000825.jpg,Chenxi Liao,001,2021-06-21_15h51.58.073,Dog face experiment_fully sample_0-300,2021.1.4,MacIntel,59.99520038
,,,,,,p,0.8334,0,219,219,219,1,219,images/pixabay_dog_001712.jpg,images/flickr_dog_000201.jpg,Chenxi Liao,001,2021-06-21_15h51.58.073,Dog face experiment_fully sample_0-300,2021.1.4,MacIntel,59.99520038
,,,,,,q,0.7951,0,220,220,220,1,220,images/flickr_dog_000861.jpg,images/pixabay_dog_002989.jpg,Chenxi Liao,001,2021-06-21_15h51.58.073,Dog face experiment_fully sample_0-300,2021.1.4,MacIntel,59.99520038
,,,,,,q,0.9944,0,221,221,221,1,221,images/flickr_dog_001079.jpg,images/pixabay_dog_001712.jpg,Chenxi Liao,001,2021-06-21_15h51.58.073,Dog face experiment_fully sample_0-300,2021.1.4,MacIntel,59.99520038
,,,,,,q,1.4119,0,222,222,222,1,222,images/pixabay_dog_001712.jpg,images/flickr_dog_000266.jpg,Chenxi Liao,001,2021-06-21_15h51.58.073,Dog face experiment_fully sample_0-300,2021.1.4,MacIntel,59.99520038
,,,,,,q,0.6782,0,223,223,223,1,223,images/flickr_dog_000861.jpg,images/pixabay_dog_001255.jpg,Chenxi Liao,001,2021-06-21_15h51.58.073,Dog face experiment_fully sample_0-300,2021.1.4,MacIntel,59.99520038
,,,,,,q,0.844,0,224,224,224,1,224,images/pixabay_dog_001150.jpg,images/pixabay_dog_001960.jpg,Chenxi Liao,001,2021-06-21_15h51.58.073,Dog face experiment_fully sample_0-300,2021.1.4,MacIntel,59.99520038
,,,,,,q,1.0813,0,225,225,225,1,225,images/pixabay_dog_002861.jpg,images/pixabay_dog_002649.jpg,Chenxi Liao,001,2021-06-21_15h51.58.073,Dog face experiment_fully sample_0-300,2021.1.4,MacIntel,59.99520038
,,,,,,p,1.0098,0,226,226,226,1,226,images/pixabay_dog_002268.jpg,images/pixabay_dog_000805.jpg,Chenxi Liao,001,2021-06-21_15h51.58.073,Dog face experiment_fully sample_0-300,2021.1.4,MacIntel,59.99520038
,,,,,,p,0.8942,0,227,227,227,1,227,images/pixabay_dog_002899.jpg,images/pixabay_dog_002596.jpg,Chenxi Liao,001,2021-06-21_15h51.58.073,Dog face experiment_fully sample_0-300,2021.1.4,MacIntel,59.99520038
,,,,,,p,1.1846,0,228,228,228,1,228,images/pixabay_dog_002360.jpg,images/pixabay_dog_001843.jpg,Chenxi Liao,001,2021-06-21_15h51.58.073,Dog face experiment_fully sample_0-300,2021.1.4,MacIntel,59.99520038
,,,,,,q,1.664,0,229,229,229,1,229,images/pixabay_dog_003859.jpg,images/flickr_dog_000913.jpg,Chenxi Liao,001,2021-06-21_15h51.58.073,Dog face experiment_fully sample_0-300,2021.1.4,MacIntel,59.99520038
,,,,,,q,1.4607,0,230,230,230,1,230,images/flickr_dog_000566.jpg,images/pixabay_dog_001712.jpg,Chenxi Liao,001,2021-06-21_15h51.58.073,Dog face experiment_fully sample_0-300,2021.1.4,MacIntel,59.99520038
,,,,,,q,1.1198,0,231,231,231,1,231,images/pixabay_dog_000914.jpg,images/pixabay_dog_002282.jpg,Chenxi Liao,001,2021-06-21_15h51.58.073,Dog face experiment_fully sample_0-300,2021.1.4,MacIntel,59.99520038
,,,,,,p,0.7442,0,232,232,232,1,232,images/pixabay_dog_002268.jpg,images/pixabay_dog_001843.jpg,Chenxi Liao,001,2021-06-21_15h51.58.073,Dog face experiment_fully sample_0-300,2021.1.4,MacIntel,59.99520038
,,,,,,q,0.7767,0,233,233,233,1,233,images/pixabay_dog_000805.jpg,images/pixabay_dog_002649.jpg,Chenxi Liao,001,2021-06-21_15h51.58.073,Dog face experiment_fully sample_0-300,2021.1.4,MacIntel,59.99520038
,,,,,,p,0.6938,0,234,234,234,1,234,images/pixabay_dog_002793.jpg,images/pixabay_dog_003859.jpg,Chenxi Liao,001,2021-06-21_15h51.58.073,Dog face experiment_fully sample_0-300,2021.1.4,MacIntel,59.99520038
,,,,,,p,0.9446,0,235,235,235,1,235,images/pixabay_dog_002899.jpg,images/flickr_dog_000019.jpg,Chenxi Liao,001,2021-06-21_15h51.58.073,Dog face experiment_fully sample_0-300,2021.1.4,MacIntel,59.99520038
,,,,,,q,0.9449,0,236,236,236,1,236,images/pixabay_dog_002268.jpg,images/pixabay_dog_003604.jpg,Chenxi Liao,001,2021-06-21_15h51.58.073,Dog face experiment_fully sample_0-300,2021.1.4,MacIntel,59.99520038
,,,,,,p,1.3428,0,237,237,237,1,237,images/pixabay_dog_003238.jpg,images/pixabay_dog_002649.jpg,Chenxi Liao,001,2021-06-21_15h51.58.073,Dog face experiment_fully sample_0-300,2021.1.4,MacIntel,59.99520038
,,,,,,q,4.646,0,238,238,238,1,238,images/pixabay_dog_003604.jpg,images/pixabay_dog_000952.jpg,Chenxi Liao,001,2021-06-21_15h51.58.073,Dog face experiment_fully sample_0-300,2021.1.4,MacIntel,59.99520038
,,,,,,q,1.2666,0,239,239,239,1,239,images/pixabay_dog_003829.jpg,images/pixabay_dog_000932.jpg,Chenxi Liao,001,2021-06-21_15h51.58.073,Dog face experiment_fully sample_0-300,2021.1.4,MacIntel,59.99520038
,,,,,,p,1.2,0,240,240,240,1,240,images/pixabay_dog_003310.jpg,images/pixabay_dog_003357.jpg,Chenxi Liao,001,2021-06-21_15h51.58.073,Dog face experiment_fully sample_0-300,2021.1.4,MacIntel,59.99520038
,,,,,,q,0.912,0,241,241,241,1,241,images/flickr_dog_001079.jpg,images/pixabay_dog_001843.jpg,Chenxi Liao,001,2021-06-21_15h51.58.073,Dog face experiment_fully sample_0-300,2021.1.4,MacIntel,59.99520038
,,,,,,q,2.2211,0,242,242,242,1,242,images/flickr_dog_001107.jpg,images/pixabay_dog_001843.jpg,Chenxi Liao,001,2021-06-21_15h51.58.073,Dog face experiment_fully sample_0-300,2021.1.4,MacIntel,59.99520038
,,,,,,q,1.0443,0,243,243,243,1,243,images/flickr_dog_000861.jpg,images/flickr_dog_000232.jpg,Chenxi Liao,001,2021-06-21_15h51.58.073,Dog face experiment_fully sample_0-300,2021.1.4,MacIntel,59.99520038
,,,,,,p,1.0001,0,244,244,244,1,244,images/flickr_dog_000083.jpg,images/pixabay_dog_003357.jpg,Chenxi Liao,001,2021-06-21_15h51.58.073,Dog face experiment_fully sample_0-300,2021.1.4,MacIntel,59.99520038
,,,,,,q,1.2273,0,245,245,245,1,245,images/pixabay_dog_003305.jpg,images/pixabay_dog_003727.jpg,Chenxi Liao,001,2021-06-21_15h51.58.073,Dog face experiment_fully sample_0-300,2021.1.4,MacIntel,59.99520038
,,,,,,q,0.8946,0,246,246,246,1,246,images/pixabay_dog_001150.jpg,images/flickr_dog_000932.jpg,Chenxi Liao,001,2021-06-21_15h51.58.073,Dog face experiment_fully sample_0-300,2021.1.4,MacIntel,59.99520038
,,,,,,p,0.7173,0,247,247,247,1,247,images/flickr_dog_000266.jpg,images/pixabay_dog_002989.jpg,Chenxi Liao,001,2021-06-21_15h51.58.073,Dog face experiment_fully sample_0-300,2021.1.4,MacIntel,59.99520038
,,,,,,q,0.7295,0,248,248,248,1,248,images/pixabay_dog_002596.jpg,images/flickr_dog_001107.jpg,Chenxi Liao,001,2021-06-21_15h51.58.073,Dog face experiment_fully sample_0-300,2021.1.4,MacIntel,59.99520038
,,,,,,q,0.8487,0,249,249,249,1,249,images/pixabay_dog_000744.jpg,images/pixabay_dog_001960.jpg,Chenxi Liao,001,2021-06-21_15h51.58.073,Dog face experiment_fully sample_0-300,2021.1.4,MacIntel,59.99520038
,,,,,,q,0.6787,0,250,250,250,1,250,images/flickr_dog_000232.jpg,images/pixabay_dog_002282.jpg,Chenxi Liao,001,2021-06-21_15h51.58.073,Dog face experiment_fully sample_0-300,2021.1.4,MacIntel,59.99520038
,,,,,,q,0.6668,0,251,251,251,1,251,images/pixabay_dog_002744.jpg,images/pixabay_dog_003727.jpg,Chenxi Liao,001,2021-06-21_15h51.58.073,Dog face experiment_fully sample_0-300,2021.1.4,MacIntel,59.99520038
,,,,,,q,1.1676,0,252,252,252,1,252,images/pixabay_dog_002861.jpg,images/flickr_dog_000932.jpg,Chenxi Liao,001,2021-06-21_15h51.58.073,Dog face experiment_fully sample_0-300,2021.1.4,MacIntel,59.99520038
,,,,,,p,0.926,0,253,253,253,1,253,images/pixabay_dog_001524.jpg,images/pixabay_dog_003357.jpg,Chenxi Liao,001,2021-06-21_15h51.58.073,Dog face experiment_fully sample_0-300,2021.1.4,MacIntel,59.99520038
,,,,,,q,0.8771,0,254,254,254,1,254,images/pixabay_dog_000744.jpg,images/pixabay_dog_000932.jpg,Chenxi Liao,001,2021-06-21_15h51.58.073,Dog face experiment_fully sample_0-300,2021.1.4,MacIntel,59.99520038
,,,,,,q,0.7265,0,255,255,255,1,255,images/pixabay_dog_002360.jpg,images/pixabay_dog_003310.jpg,Chenxi Liao,001,2021-06-21_15h51.58.073,Dog face experiment_fully sample_0-300,2021.1.4,MacIntel,59.99520038
,,,,,,q,1.0308,0,256,256,256,1,256,images/pixabay_dog_002861.jpg,images/pixabay_dog_001712.jpg,Chenxi Liao,001,2021-06-21_15h51.58.073,Dog face experiment_fully sample_0-300,2021.1.4,MacIntel,59.99520038
,,,,,,q,0.9953,0,257,257,257,1,257,images/flickr_dog_000261.jpg,images/pixabay_dog_000932.jpg,Chenxi Liao,001,2021-06-21_15h51.58.073,Dog face experiment_fully sample_0-300,2021.1.4,MacIntel,59.99520038
,,,,,,p,0.8987,0,258,258,258,1,258,images/pixabay_dog_003098.jpg,images/pixabay_dog_000825.jpg,Chenxi Liao,001,2021-06-21_15h51.58.073,Dog face experiment_fully sample_0-300,2021.1.4,MacIntel,59.99520038
,,,,,,p,1.2601,0,259,259,259,1,259,images/flickr_dog_000194.jpg,images/pixabay_dog_001524.jpg,Chenxi Liao,001,2021-06-21_15h51.58.073,Dog face experiment_fully sample_0-300,2021.1.4,MacIntel,59.99520038
,,,,,,p,0.9777,0,260,260,260,1,260,images/flickr_dog_000279.jpg,images/pixabay_dog_002989.jpg,Chenxi Liao,001,2021-06-21_15h51.58.073,Dog face experiment_fully sample_0-300,2021.1.4,MacIntel,59.99520038
,,,,,,p,1.1443,0,261,261,261,1,261,images/pixabay_dog_003604.jpg,images/flickr_dog_000913.jpg,Chenxi Liao,001,2021-06-21_15h51.58.073,Dog face experiment_fully sample_0-300,2021.1.4,MacIntel,59.99520038
,,,,,,p,0.8586,0,262,262,262,1,262,images/pixabay_dog_003098.jpg,images/flickr_dog_000201.jpg,Chenxi Liao,001,2021-06-21_15h51.58.073,Dog face experiment_fully sample_0-300,2021.1.4,MacIntel,59.99520038
,,,,,,p,0.8929,0,263,263,263,1,263,images/pixabay_dog_001150.jpg,images/flickr_dog_000861.jpg,Chenxi Liao,001,2021-06-21_15h51.58.073,Dog face experiment_fully sample_0-300,2021.1.4,MacIntel,59.99520038
,,,,,,q,0.7438,0,264,264,264,1,264,images/flickr_dog_000201.jpg,images/pixabay_dog_000952.jpg,Chenxi Liao,001,2021-06-21_15h51.58.073,Dog face experiment_fully sample_0-300,2021.1.4,MacIntel,59.99520038
,,,,,,p,0.9955,0,265,265,265,1,265,images/pixabay_dog_003098.jpg,images/pixabay_dog_003310.jpg,Chenxi Liao,001,2021-06-21_15h51.58.073,Dog face experiment_fully sample_0-300,2021.1.4,MacIntel,59.99520038
,,,,,,p,0.6787,0,266,266,266,1,266,images/flickr_dog_000019.jpg,images/flickr_dog_000194.jpg,Chenxi Liao,001,2021-06-21_15h51.58.073,Dog face experiment_fully sample_0-300,2021.1.4,MacIntel,59.99520038
,,,,,,q,0.7957,0,267,267,267,1,267,images/flickr_dog_001079.jpg,images/flickr_dog_000194.jpg,Chenxi Liao,001,2021-06-21_15h51.58.073,Dog face experiment_fully sample_0-300,2021.1.4,MacIntel,59.99520038
,,,,,,q,0.7935,0,268,268,268,1,268,images/pixabay_dog_003098.jpg,images/flickr_dog_000279.jpg,Chenxi Liao,001,2021-06-21_15h51.58.073,Dog face experiment_fully sample_0-300,2021.1.4,MacIntel,59.99520038
,,,,,,q,1.8299,0,269,269,269,1,269,images/pixabay_dog_003971.jpg,images/pixabay_dog_000932.jpg,Chenxi Liao,001,2021-06-21_15h51.58.073,Dog face experiment_fully sample_0-300,2021.1.4,MacIntel,59.99520038
,,,,,,p,0.8985,0,270,270,270,1,270,images/pixabay_dog_002649.jpg,images/flickr_dog_000194.jpg,Chenxi Liao,001,2021-06-21_15h51.58.073,Dog face experiment_fully sample_0-300,2021.1.4,MacIntel,59.99520038
,,,,,,p,0.9182,0,271,271,271,1,271,images/flickr_dog_000083.jpg,images/pixabay_dog_000825.jpg,Chenxi Liao,001,2021-06-21_15h51.58.073,Dog face experiment_fully sample_0-300,2021.1.4,MacIntel,59.99520038
,,,,,,p,1.5784,0,272,272,272,1,272,images/pixabay_dog_003971.jpg,images/pixabay_dog_002861.jpg,Chenxi Liao,001,2021-06-21_15h51.58.073,Dog face experiment_fully sample_0-300,2021.1.4,MacIntel,59.99520038
,,,,,,q,1.0473,0,273,273,273,1,273,images/flickr_dog_000861.jpg,images/flickr_dog_000913.jpg,Chenxi Liao,001,2021-06-21_15h51.58.073,Dog face experiment_fully sample_0-300,2021.1.4,MacIntel,59.99520038
,,,,,,p,2.3168,0,274,274,274,1,274,images/pixabay_dog_002268.jpg,images/pixabay_dog_000825.jpg,Chenxi Liao,001,2021-06-21_15h51.58.073,Dog face experiment_fully sample_0-300,2021.1.4,MacIntel,59.99520038
,,,,,,q,0.967,0,275,275,275,1,275,images/flickr_dog_001079.jpg,images/pixabay_dog_000825.jpg,Chenxi Liao,001,2021-06-21_15h51.58.073,Dog face experiment_fully sample_0-300,2021.1.4,MacIntel,59.99520038
,,,,,,p,1.8252,0,276,276,276,1,276,images/pixabay_dog_002268.jpg,images/pixabay_dog_000744.jpg,Chenxi Liao,001,2021-06-21_15h51.58.073,Dog face experiment_fully sample_0-300,2021.1.4,MacIntel,59.99520038
,,,,,,p,1.7451,0,277,277,277,1,277,images/pixabay_dog_002596.jpg,images/pixabay_dog_003859.jpg,Chenxi Liao,001,2021-06-21_15h51.58.073,Dog face experiment_fully sample_0-300,2021.1.4,MacIntel,59.99520038
,,,,,,q,1.509,0,278,278,278,1,278,images/pixabay_dog_002899.jpg,images/flickr_dog_000279.jpg,Chenxi Liao,001,2021-06-21_15h51.58.073,Dog face experiment_fully sample_0-300,2021.1.4,MacIntel,59.99520038
,,,,,,q,1.1187,0,279,279,279,1,279,images/pixabay_dog_000744.jpg,images/pixabay_dog_002649.jpg,Chenxi Liao,001,2021-06-21_15h51.58.073,Dog face experiment_fully sample_0-300,2021.1.4,MacIntel,59.99520038
,,,,,,q,0.9943,0,280,280,280,1,280,images/pixabay_dog_002899.jpg,images/pixabay_dog_000914.jpg,Chenxi Liao,001,2021-06-21_15h51.58.073,Dog face experiment_fully sample_0-300,2021.1.4,MacIntel,59.99520038
,,,,,,p,0.7125,0,281,281,281,1,281,images/pixabay_dog_000744.jpg,images/flickr_dog_000861.jpg,Chenxi Liao,001,2021-06-21_15h51.58.073,Dog face experiment_fully sample_0-300,2021.1.4,MacIntel,59.99520038
,,,,,,q,1.1649,0,282,282,282,1,282,images/pixabay_dog_002861.jpg,images/pixabay_dog_001255.jpg,Chenxi Liao,001,2021-06-21_15h51.58.073,Dog face experiment_fully sample_0-300,2021.1.4,MacIntel,59.99520038
,,,,,,q,0.8502,0,283,283,283,1,283,images/pixabay_dog_002989.jpg,images/pixabay_dog_000525.jpg,Chenxi Liao,001,2021-06-21_15h51.58.073,Dog face experiment_fully sample_0-300,2021.1.4,MacIntel,59.99520038
,,,,,,q,1.1675,0,284,284,284,1,284,images/pixabay_dog_000805.jpg,images/pixabay_dog_003829.jpg,Chenxi Liao,001,2021-06-21_15h51.58.073,Dog face experiment_fully sample_0-300,2021.1.4,MacIntel,59.99520038
,,,,,,p,1.1257,0,285,285,285,1,285,images/pixabay_dog_000914.jpg,images/pixabay_dog_003859.jpg,Chenxi Liao,001,2021-06-21_15h51.58.073,Dog face experiment_fully sample_0-300,2021.1.4,MacIntel,59.99520038
,,,,,,q,0.7765,0,286,286,286,1,286,images/pixabay_dog_002744.jpg,images/pixabay_dog_001843.jpg,Chenxi Liao,001,2021-06-21_15h51.58.073,Dog face experiment_fully sample_0-300,2021.1.4,MacIntel,59.99520038
,,,,,,p,0.7251,0,287,287,287,1,287,images/pixabay_dog_001255.jpg,images/pixabay_dog_000805.jpg,Chenxi Liao,001,2021-06-21_15h51.58.073,Dog face experiment_fully sample_0-300,2021.1.4,MacIntel,59.99520038
,,,,,,p,0.8607,0,288,288,288,1,288,images/pixabay_dog_003238.jpg,images/pixabay_dog_003357.jpg,Chenxi Liao,001,2021-06-21_15h51.58.073,Dog face experiment_fully sample_0-300,2021.1.4,MacIntel,59.99520038
,,,,,,q,0.979,0,289,289,289,1,289,images/pixabay_dog_000042.jpg,images/pixabay_dog_002649.jpg,Chenxi Liao,001,2021-06-21_15h51.58.073,Dog face experiment_fully sample_0-300,2021.1.4,MacIntel,59.99520038
,,,,,,q,0.7117,0,290,290,290,1,290,images/flickr_dog_000861.jpg,images/pixabay_dog_001843.jpg,Chenxi Liao,001,2021-06-21_15h51.58.073,Dog face experiment_fully sample_0-300,2021.1.4,MacIntel,59.99520038
,,,,,,q,1.1783,0,291,291,291,1,291,images/pixabay_dog_002360.jpg,images/pixabay_dog_000914.jpg,Chenxi Liao,001,2021-06-21_15h51.58.073,Dog face experiment_fully sample_0-300,2021.1.4,MacIntel,59.99520038
,,,,,,p,0.7713,0,292,292,292,1,292,images/flickr_dog_000566.jpg,images/pixabay_dog_002744.jpg,Chenxi Liao,001,2021-06-21_15h51.58.073,Dog face experiment_fully sample_0-300,2021.1.4,MacIntel,59.99520038
,,,,,,p,0.9465,0,293,293,293,1,293,images/pixabay_dog_001712.jpg,images/pixabay_dog_003859.jpg,Chenxi Liao,001,2021-06-21_15h51.58.073,Dog face experiment_fully sample_0-300,2021.1.4,MacIntel,59.99520038
,,,,,,q,0.837,0,294,294,294,1,294,images/pixabay_dog_001712.jpg,images/pixabay_dog_003310.jpg,Chenxi Liao,001,2021-06-21_15h51.58.073,Dog face experiment_fully sample_0-300,2021.1.4,MacIntel,59.99520038
,,,,,,q,0.8647,0,295,295,295,1,295,images/pixabay_dog_003305.jpg,images/pixabay_dog_000525.jpg,Chenxi Liao,001,2021-06-21_15h51.58.073,Dog face experiment_fully sample_0-300,2021.1.4,MacIntel,59.99520038
,,,,,,p,0.7802,0,296,296,296,1,296,images/flickr_dog_000194.jpg,images/flickr_dog_001107.jpg,Chenxi Liao,001,2021-06-21_15h51.58.073,Dog face experiment_fully sample_0-300,2021.1.4,MacIntel,59.99520038
,,,,,,q,1.2096,0,297,297,297,1,297,images/pixabay_dog_001150.jpg,images/flickr_dog_000083.jpg,Chenxi Liao,001,2021-06-21_15h51.58.073,Dog face experiment_fully sample_0-300,2021.1.4,MacIntel,59.99520038
,,,,,,q,0.7703,0,298,298,298,1,298,images/flickr_dog_000201.jpg,images/pixabay_dog_001960.jpg,Chenxi Liao,001,2021-06-21_15h51.58.073,Dog face experiment_fully sample_0-300,2021.1.4,MacIntel,59.99520038
,,,,,,p,1.3065,0,299,299,299,1,299,images/pixabay_dog_003098.jpg,images/pixabay_dog_000744.jpg,Chenxi Liao,001,2021-06-21_15h51.58.073,Dog face experiment_fully sample_0-300,2021.1.4,MacIntel,59.99520038
