key_resp.keys,key_resp.rt,key_resp_2.keys,key_resp_2.rt,key_resp_3.keys,key_resp_3.rt,key_resp_4.keys,key_resp_4.rt,trials.thisRepN,trials.thisTrialN,trials.thisN,trials.thisIndex,trials.ran,trail_nums,img1,img2,participant,session,date,expName,psychopyVersion,OS,frameRate
space,1.2869,space,0.867,space,0.0642,p,3.1747,0,0,0,0,1,0,images/pixabay_dog_000853.jpg,images/pixabay_dog_003859.jpg,Eddy,001,2021-08-04_10h29.54.279,Dog face experiment_fully sample_0-300,2021.1.4,Win32,143.4514417
,,,,,,p,1.2637,0,1,1,1,1,1,images/pixabay_dog_001960.jpg,images/pixabay_dog_000525.jpg,Eddy,001,2021-08-04_10h29.54.279,Dog face experiment_fully sample_0-300,2021.1.4,Win32,143.4514417
,,,,,,q,2.0705,0,2,2,2,1,2,images/pixabay_dog_003971.jpg,images/pixabay_dog_000744.jpg,Eddy,001,2021-08-04_10h29.54.279,Dog face experiment_fully sample_0-300,2021.1.4,Win32,143.4514417
,,,,,,q,2.3513,0,3,3,3,1,3,images/pixabay_dog_000805.jpg,images/pixabay_dog_000525.jpg,Eddy,001,2021-08-04_10h29.54.279,Dog face experiment_fully sample_0-300,2021.1.4,Win32,143.4514417
,,,,,,p,0.7798,0,4,4,4,1,4,images/pixabay_dog_003238.jpg,images/pixabay_dog_002282.jpg,Eddy,001,2021-08-04_10h29.54.279,Dog face experiment_fully sample_0-300,2021.1.4,Win32,143.4514417
,,,,,,p,1.3273,0,5,5,5,1,5,images/pixabay_dog_003727.jpg,images/flickr_dog_000083.jpg,Eddy,001,2021-08-04_10h29.54.279,Dog face experiment_fully sample_0-300,2021.1.4,Win32,143.4514417
,,,,,,q,1.2479,0,6,6,6,1,6,images/pixabay_dog_002282.jpg,images/pixabay_dog_003859.jpg,Eddy,001,2021-08-04_10h29.54.279,Dog face experiment_fully sample_0-300,2021.1.4,Win32,143.4514417
,,,,,,q,1.1827,0,7,7,7,1,7,images/pixabay_dog_003305.jpg,images/pixabay_dog_002360.jpg,Eddy,001,2021-08-04_10h29.54.279,Dog face experiment_fully sample_0-300,2021.1.4,Win32,143.4514417
,,,,,,q,1.6924,0,8,8,8,1,8,images/pixabay_dog_001255.jpg,images/flickr_dog_000932.jpg,Eddy,001,2021-08-04_10h29.54.279,Dog face experiment_fully sample_0-300,2021.1.4,Win32,143.4514417
,,,,,,p,2.5736,0,9,9,9,1,9,images/pixabay_dog_000805.jpg,images/pixabay_dog_003357.jpg,Eddy,001,2021-08-04_10h29.54.279,Dog face experiment_fully sample_0-300,2021.1.4,Win32,143.4514417
,,,,,,q,1.0446,0,10,10,10,1,10,images/pixabay_dog_002282.jpg,images/pixabay_dog_002989.jpg,Eddy,001,2021-08-04_10h29.54.279,Dog face experiment_fully sample_0-300,2021.1.4,Win32,143.4514417
,,,,,,p,1.0831,0,11,11,11,1,11,images/pixabay_dog_000744.jpg,images/flickr_dog_001107.jpg,Eddy,001,2021-08-04_10h29.54.279,Dog face experiment_fully sample_0-300,2021.1.4,Win32,143.4514417
,,,,,,q,1.1874,0,12,12,12,1,12,images/pixabay_dog_002282.jpg,images/pixabay_dog_002596.jpg,Eddy,001,2021-08-04_10h29.54.279,Dog face experiment_fully sample_0-300,2021.1.4,Win32,143.4514417
,,,,,,p,0.9361,0,13,13,13,1,13,images/flickr_dog_000083.jpg,images/flickr_dog_001107.jpg,Eddy,001,2021-08-04_10h29.54.279,Dog face experiment_fully sample_0-300,2021.1.4,Win32,143.4514417
,,,,,,q,2.8967,0,14,14,14,1,14,images/flickr_dog_000232.jpg,images/flickr_dog_000083.jpg,Eddy,001,2021-08-04_10h29.54.279,Dog face experiment_fully sample_0-300,2021.1.4,Win32,143.4514417
,,,,,,p,1.3389,0,15,15,15,1,15,images/pixabay_dog_002268.jpg,images/pixabay_dog_001524.jpg,Eddy,001,2021-08-04_10h29.54.279,Dog face experiment_fully sample_0-300,2021.1.4,Win32,143.4514417
,,,,,,p,6.0357,0,16,16,16,1,16,images/pixabay_dog_002744.jpg,images/pixabay_dog_001524.jpg,Eddy,001,2021-08-04_10h29.54.279,Dog face experiment_fully sample_0-300,2021.1.4,Win32,143.4514417
,,,,,,q,1.3735,0,17,17,17,1,17,images/pixabay_dog_001712.jpg,images/pixabay_dog_001960.jpg,Eddy,001,2021-08-04_10h29.54.279,Dog face experiment_fully sample_0-300,2021.1.4,Win32,143.4514417
,,,,,,q,4.4199,0,18,18,18,1,18,images/flickr_dog_000083.jpg,images/pixabay_dog_001465.jpg,Eddy,001,2021-08-04_10h29.54.279,Dog face experiment_fully sample_0-300,2021.1.4,Win32,143.4514417
,,,,,,p,2.0035,0,19,19,19,1,19,images/pixabay_dog_000042.jpg,images/pixabay_dog_000853.jpg,Eddy,001,2021-08-04_10h29.54.279,Dog face experiment_fully sample_0-300,2021.1.4,Win32,143.4514417
,,,,,,p,4.0536,0,20,20,20,1,20,images/flickr_dog_000261.jpg,images/pixabay_dog_003829.jpg,Eddy,001,2021-08-04_10h29.54.279,Dog face experiment_fully sample_0-300,2021.1.4,Win32,143.4514417
,,,,,,p,0.8421,0,21,21,21,1,21,images/pixabay_dog_000853.jpg,images/flickr_dog_000913.jpg,Eddy,001,2021-08-04_10h29.54.279,Dog face experiment_fully sample_0-300,2021.1.4,Win32,143.4514417
,,,,,,p,1.4427,0,22,22,22,1,22,images/pixabay_dog_000042.jpg,images/pixabay_dog_002793.jpg,Eddy,001,2021-08-04_10h29.54.279,Dog face experiment_fully sample_0-300,2021.1.4,Win32,143.4514417
,,,,,,q,1.6716,0,23,23,23,1,23,images/pixabay_dog_001255.jpg,images/pixabay_dog_002989.jpg,Eddy,001,2021-08-04_10h29.54.279,Dog face experiment_fully sample_0-300,2021.1.4,Win32,143.4514417
,,,,,,q,1.7956,0,24,24,24,1,24,images/pixabay_dog_002360.jpg,images/flickr_dog_000083.jpg,Eddy,001,2021-08-04_10h29.54.279,Dog face experiment_fully sample_0-300,2021.1.4,Win32,143.4514417
,,,,,,q,1.1663,0,25,25,25,1,25,images/flickr_dog_000861.jpg,images/flickr_dog_000932.jpg,Eddy,001,2021-08-04_10h29.54.279,Dog face experiment_fully sample_0-300,2021.1.4,Win32,143.4514417
,,,,,,q,2.315,0,26,26,26,1,26,images/pixabay_dog_003971.jpg,images/flickr_dog_000913.jpg,Eddy,001,2021-08-04_10h29.54.279,Dog face experiment_fully sample_0-300,2021.1.4,Win32,143.4514417
,,,,,,p,1.0568,0,27,27,27,1,27,images/flickr_dog_000201.jpg,images/pixabay_dog_003310.jpg,Eddy,001,2021-08-04_10h29.54.279,Dog face experiment_fully sample_0-300,2021.1.4,Win32,143.4514417
,,,,,,p,1.485,0,28,28,28,1,28,images/pixabay_dog_003859.jpg,images/pixabay_dog_001843.jpg,Eddy,001,2021-08-04_10h29.54.279,Dog face experiment_fully sample_0-300,2021.1.4,Win32,143.4514417
,,,,,,q,2.4302,0,29,29,29,1,29,images/pixabay_dog_002282.jpg,images/pixabay_dog_000932.jpg,Eddy,001,2021-08-04_10h29.54.279,Dog face experiment_fully sample_0-300,2021.1.4,Win32,143.4514417
,,,,,,p,3.8725,0,30,30,30,1,30,images/flickr_dog_000261.jpg,images/pixabay_dog_001524.jpg,Eddy,001,2021-08-04_10h29.54.279,Dog face experiment_fully sample_0-300,2021.1.4,Win32,143.4514417
,,,,,,p,2.0089,0,31,31,31,1,31,images/pixabay_dog_000914.jpg,images/flickr_dog_000201.jpg,Eddy,001,2021-08-04_10h29.54.279,Dog face experiment_fully sample_0-300,2021.1.4,Win32,143.4514417
,,,,,,p,1.8609,0,32,32,32,1,32,images/pixabay_dog_001255.jpg,images/pixabay_dog_002596.jpg,Eddy,001,2021-08-04_10h29.54.279,Dog face experiment_fully sample_0-300,2021.1.4,Win32,143.4514417
,,,,,,p,1.7238,0,33,33,33,1,33,images/flickr_dog_000261.jpg,images/pixabay_dog_003859.jpg,Eddy,001,2021-08-04_10h29.54.279,Dog face experiment_fully sample_0-300,2021.1.4,Win32,143.4514417
,,,,,,q,3.2343,0,34,34,34,1,34,images/pixabay_dog_000914.jpg,images/pixabay_dog_001465.jpg,Eddy,001,2021-08-04_10h29.54.279,Dog face experiment_fully sample_0-300,2021.1.4,Win32,143.4514417
,,,,,,p,1.7821,0,35,35,35,1,35,images/pixabay_dog_001150.jpg,images/pixabay_dog_001843.jpg,Eddy,001,2021-08-04_10h29.54.279,Dog face experiment_fully sample_0-300,2021.1.4,Win32,143.4514417
,,,,,,q,1.4293,0,36,36,36,1,36,images/pixabay_dog_003971.jpg,images/pixabay_dog_003727.jpg,Eddy,001,2021-08-04_10h29.54.279,Dog face experiment_fully sample_0-300,2021.1.4,Win32,143.4514417
,,,,,,p,3.0621,0,37,37,37,1,37,images/pixabay_dog_002744.jpg,images/flickr_dog_000932.jpg,Eddy,001,2021-08-04_10h29.54.279,Dog face experiment_fully sample_0-300,2021.1.4,Win32,143.4514417
,,,,,,q,1.3019,0,38,38,38,1,38,images/flickr_dog_000861.jpg,images/flickr_dog_000266.jpg,Eddy,001,2021-08-04_10h29.54.279,Dog face experiment_fully sample_0-300,2021.1.4,Win32,143.4514417
,,,,,,p,2.6883,0,39,39,39,1,39,images/flickr_dog_000019.jpg,images/pixabay_dog_003859.jpg,Eddy,001,2021-08-04_10h29.54.279,Dog face experiment_fully sample_0-300,2021.1.4,Win32,143.4514417
,,,,,,q,1.6357,0,40,40,40,1,40,images/pixabay_dog_002282.jpg,images/pixabay_dog_000525.jpg,Eddy,001,2021-08-04_10h29.54.279,Dog face experiment_fully sample_0-300,2021.1.4,Win32,143.4514417
,,,,,,p,3.4311,0,41,41,41,1,41,images/pixabay_dog_000744.jpg,images/pixabay_dog_002596.jpg,Eddy,001,2021-08-04_10h29.54.279,Dog face experiment_fully sample_0-300,2021.1.4,Win32,143.4514417
,,,,,,p,2.05,0,42,42,42,1,42,images/pixabay_dog_000952.jpg,images/pixabay_dog_002596.jpg,Eddy,001,2021-08-04_10h29.54.279,Dog face experiment_fully sample_0-300,2021.1.4,Win32,143.4514417
,,,,,,p,2.3944,0,43,43,43,1,43,images/pixabay_dog_000932.jpg,images/flickr_dog_000194.jpg,Eddy,001,2021-08-04_10h29.54.279,Dog face experiment_fully sample_0-300,2021.1.4,Win32,143.4514417
,,,,,,q,1.6787,0,44,44,44,1,44,images/flickr_dog_000279.jpg,images/flickr_dog_000232.jpg,Eddy,001,2021-08-04_10h29.54.279,Dog face experiment_fully sample_0-300,2021.1.4,Win32,143.4514417
,,,,,,q,1.7869,0,45,45,45,1,45,images/pixabay_dog_000805.jpg,images/pixabay_dog_000853.jpg,Eddy,001,2021-08-04_10h29.54.279,Dog face experiment_fully sample_0-300,2021.1.4,Win32,143.4514417
,,,,,,q,0.8916,0,46,46,46,1,46,images/pixabay_dog_003305.jpg,images/flickr_dog_000083.jpg,Eddy,001,2021-08-04_10h29.54.279,Dog face experiment_fully sample_0-300,2021.1.4,Win32,143.4514417
,,,,,,q,1.5562,0,47,47,47,1,47,images/pixabay_dog_003604.jpg,images/pixabay_dog_000932.jpg,Eddy,001,2021-08-04_10h29.54.279,Dog face experiment_fully sample_0-300,2021.1.4,Win32,143.4514417
,,,,,,q,1.4743,0,48,48,48,1,48,images/pixabay_dog_001712.jpg,images/flickr_dog_000232.jpg,Eddy,001,2021-08-04_10h29.54.279,Dog face experiment_fully sample_0-300,2021.1.4,Win32,143.4514417
,,,,,,q,2.5643,0,49,49,49,1,49,images/pixabay_dog_002899.jpg,images/pixabay_dog_000525.jpg,Eddy,001,2021-08-04_10h29.54.279,Dog face experiment_fully sample_0-300,2021.1.4,Win32,143.4514417
,,,,,,p,4.1296,0,50,50,50,1,50,images/pixabay_dog_000932.jpg,images/pixabay_dog_002989.jpg,Eddy,001,2021-08-04_10h29.54.279,Dog face experiment_fully sample_0-300,2021.1.4,Win32,143.4514417
,,,,,,q,2.0047,0,51,51,51,1,51,images/pixabay_dog_003971.jpg,images/flickr_dog_000083.jpg,Eddy,001,2021-08-04_10h29.54.279,Dog face experiment_fully sample_0-300,2021.1.4,Win32,143.4514417
,,,,,,p,1.5637,0,52,52,52,1,52,images/pixabay_dog_000042.jpg,images/pixabay_dog_002861.jpg,Eddy,001,2021-08-04_10h29.54.279,Dog face experiment_fully sample_0-300,2021.1.4,Win32,143.4514417
,,,,,,q,0.9796,0,53,53,53,1,53,images/pixabay_dog_003604.jpg,images/pixabay_dog_003829.jpg,Eddy,001,2021-08-04_10h29.54.279,Dog face experiment_fully sample_0-300,2021.1.4,Win32,143.4514417
,,,,,,p,0.7419,0,54,54,54,1,54,images/pixabay_dog_001524.jpg,images/pixabay_dog_001843.jpg,Eddy,001,2021-08-04_10h29.54.279,Dog face experiment_fully sample_0-300,2021.1.4,Win32,143.4514417
,,,,,,p,1.3245,0,55,55,55,1,55,images/flickr_dog_000083.jpg,images/flickr_dog_000194.jpg,Eddy,001,2021-08-04_10h29.54.279,Dog face experiment_fully sample_0-300,2021.1.4,Win32,143.4514417
,,,,,,p,0.7643,0,56,56,56,1,56,images/pixabay_dog_003971.jpg,images/pixabay_dog_003604.jpg,Eddy,001,2021-08-04_10h29.54.279,Dog face experiment_fully sample_0-300,2021.1.4,Win32,143.4514417
,,,,,,p,2.1048,0,57,57,57,1,57,images/flickr_dog_000261.jpg,images/pixabay_dog_001712.jpg,Eddy,001,2021-08-04_10h29.54.279,Dog face experiment_fully sample_0-300,2021.1.4,Win32,143.4514417
,,,,,,p,0.8677,0,58,58,58,1,58,images/pixabay_dog_000932.jpg,images/pixabay_dog_000825.jpg,Eddy,001,2021-08-04_10h29.54.279,Dog face experiment_fully sample_0-300,2021.1.4,Win32,143.4514417
,,,,,,q,7.8554,0,59,59,59,1,59,images/pixabay_dog_002360.jpg,images/pixabay_dog_002649.jpg,Eddy,001,2021-08-04_10h29.54.279,Dog face experiment_fully sample_0-300,2021.1.4,Win32,143.4514417
,,,,,,p,0.9381,0,60,60,60,1,60,images/pixabay_dog_000042.jpg,images/flickr_dog_000861.jpg,Eddy,001,2021-08-04_10h29.54.279,Dog face experiment_fully sample_0-300,2021.1.4,Win32,143.4514417
,,,,,,q,1.2443,0,61,61,61,1,61,images/pixabay_dog_001150.jpg,images/flickr_dog_000266.jpg,Eddy,001,2021-08-04_10h29.54.279,Dog face experiment_fully sample_0-300,2021.1.4,Win32,143.4514417
,,,,,,q,1.1954,0,62,62,62,1,62,images/pixabay_dog_003971.jpg,images/pixabay_dog_003859.jpg,Eddy,001,2021-08-04_10h29.54.279,Dog face experiment_fully sample_0-300,2021.1.4,Win32,143.4514417
,,,,,,p,1.2301,0,63,63,63,1,63,images/pixabay_dog_000042.jpg,images/flickr_dog_000201.jpg,Eddy,001,2021-08-04_10h29.54.279,Dog face experiment_fully sample_0-300,2021.1.4,Win32,143.4514417
,,,,,,p,1.0718,0,64,64,64,1,64,images/pixabay_dog_003604.jpg,images/pixabay_dog_001843.jpg,Eddy,001,2021-08-04_10h29.54.279,Dog face experiment_fully sample_0-300,2021.1.4,Win32,143.4514417
,,,,,,p,0.8783,0,65,65,65,1,65,images/pixabay_dog_002596.jpg,images/pixabay_dog_001843.jpg,Eddy,001,2021-08-04_10h29.54.279,Dog face experiment_fully sample_0-300,2021.1.4,Win32,143.4514417
,,,,,,q,5.8997,0,66,66,66,1,66,images/flickr_dog_000083.jpg,images/pixabay_dog_000853.jpg,Eddy,001,2021-08-04_10h29.54.279,Dog face experiment_fully sample_0-300,2021.1.4,Win32,143.4514417
,,,,,,q,4.7176,0,67,67,67,1,67,images/flickr_dog_000932.jpg,images/flickr_dog_000194.jpg,Eddy,001,2021-08-04_10h29.54.279,Dog face experiment_fully sample_0-300,2021.1.4,Win32,143.4514417
,,,,,,q,1.4859,0,68,68,68,1,68,images/pixabay_dog_001150.jpg,images/pixabay_dog_003310.jpg,Eddy,001,2021-08-04_10h29.54.279,Dog face experiment_fully sample_0-300,2021.1.4,Win32,143.4514417
,,,,,,p,1.2322,0,69,69,69,1,69,images/pixabay_dog_001960.jpg,images/flickr_dog_000913.jpg,Eddy,001,2021-08-04_10h29.54.279,Dog face experiment_fully sample_0-300,2021.1.4,Win32,143.4514417
,,,,,,q,1.1261,0,70,70,70,1,70,images/flickr_dog_000266.jpg,images/flickr_dog_000194.jpg,Eddy,001,2021-08-04_10h29.54.279,Dog face experiment_fully sample_0-300,2021.1.4,Win32,143.4514417
,,,,,,q,4.9309,0,71,71,71,1,71,images/pixabay_dog_002360.jpg,images/flickr_dog_000279.jpg,Eddy,001,2021-08-04_10h29.54.279,Dog face experiment_fully sample_0-300,2021.1.4,Win32,143.4514417
,,,,,,q,1.2992,0,72,72,72,1,72,images/flickr_dog_000861.jpg,images/pixabay_dog_003829.jpg,Eddy,001,2021-08-04_10h29.54.279,Dog face experiment_fully sample_0-300,2021.1.4,Win32,143.4514417
,,,,,,p,0.9969,0,73,73,73,1,73,images/pixabay_dog_000042.jpg,images/flickr_dog_000194.jpg,Eddy,001,2021-08-04_10h29.54.279,Dog face experiment_fully sample_0-300,2021.1.4,Win32,143.4514417
,,,,,,p,0.9508,0,74,74,74,1,74,images/pixabay_dog_002744.jpg,images/pixabay_dog_000825.jpg,Eddy,001,2021-08-04_10h29.54.279,Dog face experiment_fully sample_0-300,2021.1.4,Win32,143.4514417
,,,,,,p,1.0706,0,75,75,75,1,75,images/flickr_dog_000232.jpg,images/pixabay_dog_003859.jpg,Eddy,001,2021-08-04_10h29.54.279,Dog face experiment_fully sample_0-300,2021.1.4,Win32,143.4514417
,,,,,,q,1.5377,0,76,76,76,1,76,images/pixabay_dog_001255.jpg,images/pixabay_dog_003727.jpg,Eddy,001,2021-08-04_10h29.54.279,Dog face experiment_fully sample_0-300,2021.1.4,Win32,143.4514417
,,,,,,p,3.3287,0,77,77,77,1,77,images/flickr_dog_000566.jpg,images/pixabay_dog_001524.jpg,Eddy,001,2021-08-04_10h29.54.279,Dog face experiment_fully sample_0-300,2021.1.4,Win32,143.4514417
,,,,,,q,2.314,0,78,78,78,1,78,images/pixabay_dog_000932.jpg,images/pixabay_dog_001465.jpg,Eddy,001,2021-08-04_10h29.54.279,Dog face experiment_fully sample_0-300,2021.1.4,Win32,143.4514417
,,,,,,p,3.1137,0,79,79,79,1,79,images/pixabay_dog_000853.jpg,images/pixabay_dog_002989.jpg,Eddy,001,2021-08-04_10h29.54.279,Dog face experiment_fully sample_0-300,2021.1.4,Win32,143.4514417
,,,,,,q,1.1661,0,80,80,80,1,80,images/flickr_dog_000019.jpg,images/flickr_dog_000932.jpg,Eddy,001,2021-08-04_10h29.54.279,Dog face experiment_fully sample_0-300,2021.1.4,Win32,143.4514417
,,,,,,p,3.0722,0,81,81,81,1,81,images/flickr_dog_000232.jpg,images/pixabay_dog_000805.jpg,Eddy,001,2021-08-04_10h29.54.279,Dog face experiment_fully sample_0-300,2021.1.4,Win32,143.4514417
,,,,,,q,0.9821,0,82,82,82,1,82,images/pixabay_dog_003971.jpg,images/pixabay_dog_002744.jpg,Eddy,001,2021-08-04_10h29.54.279,Dog face experiment_fully sample_0-300,2021.1.4,Win32,143.4514417
,,,,,,p,2.508,0,83,83,83,1,83,images/pixabay_dog_002268.jpg,images/pixabay_dog_001255.jpg,Eddy,001,2021-08-04_10h29.54.279,Dog face experiment_fully sample_0-300,2021.1.4,Win32,143.4514417
,,,,,,p,1.2201,0,84,84,84,1,84,images/pixabay_dog_000914.jpg,images/flickr_dog_000932.jpg,Eddy,001,2021-08-04_10h29.54.279,Dog face experiment_fully sample_0-300,2021.1.4,Win32,143.4514417
,,,,,,q,1.1046,0,85,85,85,1,85,images/pixabay_dog_002268.jpg,images/pixabay_dog_000853.jpg,Eddy,001,2021-08-04_10h29.54.279,Dog face experiment_fully sample_0-300,2021.1.4,Win32,143.4514417
,,,,,,p,1.1275,0,86,86,86,1,86,images/pixabay_dog_000525.jpg,images/pixabay_dog_001843.jpg,Eddy,001,2021-08-04_10h29.54.279,Dog face experiment_fully sample_0-300,2021.1.4,Win32,143.4514417
,,,,,,q,1.7017,0,87,87,87,1,87,images/pixabay_dog_003604.jpg,images/pixabay_dog_003859.jpg,Eddy,001,2021-08-04_10h29.54.279,Dog face experiment_fully sample_0-300,2021.1.4,Win32,143.4514417
,,,,,,q,1.1957,0,88,88,88,1,88,images/pixabay_dog_000914.jpg,images/pixabay_dog_000932.jpg,Eddy,001,2021-08-04_10h29.54.279,Dog face experiment_fully sample_0-300,2021.1.4,Win32,143.4514417
,,,,,,q,1.2812,0,89,89,89,1,89,images/pixabay_dog_003604.jpg,images/pixabay_dog_002793.jpg,Eddy,001,2021-08-04_10h29.54.279,Dog face experiment_fully sample_0-300,2021.1.4,Win32,143.4514417
,,,,,,p,2.0572,0,90,90,90,1,90,images/pixabay_dog_000042.jpg,images/pixabay_dog_003859.jpg,Eddy,001,2021-08-04_10h29.54.279,Dog face experiment_fully sample_0-300,2021.1.4,Win32,143.4514417
,,,,,,q,1.0028,0,91,91,91,1,91,images/pixabay_dog_003305.jpg,images/pixabay_dog_001712.jpg,Eddy,001,2021-08-04_10h29.54.279,Dog face experiment_fully sample_0-300,2021.1.4,Win32,143.4514417
,,,,,,q,2.5327,0,92,92,92,1,92,images/flickr_dog_000566.jpg,images/pixabay_dog_000952.jpg,Eddy,001,2021-08-04_10h29.54.279,Dog face experiment_fully sample_0-300,2021.1.4,Win32,143.4514417
,,,,,,p,4.7587,0,93,93,93,1,93,images/pixabay_dog_000853.jpg,images/pixabay_dog_003829.jpg,Eddy,001,2021-08-04_10h29.54.279,Dog face experiment_fully sample_0-300,2021.1.4,Win32,143.4514417
,,,,,,p,1.5492,0,94,94,94,1,94,images/pixabay_dog_000853.jpg,images/pixabay_dog_001465.jpg,Eddy,001,2021-08-04_10h29.54.279,Dog face experiment_fully sample_0-300,2021.1.4,Win32,143.4514417
,,,,,,q,2.6869,0,95,95,95,1,95,images/pixabay_dog_003098.jpg,images/pixabay_dog_000525.jpg,Eddy,001,2021-08-04_10h29.54.279,Dog face experiment_fully sample_0-300,2021.1.4,Win32,143.4514417
,,,,,,q,3.5414,0,96,96,96,1,96,images/flickr_dog_000019.jpg,images/pixabay_dog_000932.jpg,Eddy,001,2021-08-04_10h29.54.279,Dog face experiment_fully sample_0-300,2021.1.4,Win32,143.4514417
,,,,,,p,1.3817,0,97,97,97,1,97,images/pixabay_dog_003305.jpg,images/pixabay_dog_001843.jpg,Eddy,001,2021-08-04_10h29.54.279,Dog face experiment_fully sample_0-300,2021.1.4,Win32,143.4514417
,,,,,,p,2.9284,0,98,98,98,1,98,images/pixabay_dog_003098.jpg,images/flickr_dog_000913.jpg,Eddy,001,2021-08-04_10h29.54.279,Dog face experiment_fully sample_0-300,2021.1.4,Win32,143.4514417
,,,,,,p,1.3954,0,99,99,99,1,99,images/flickr_dog_000566.jpg,images/pixabay_dog_001843.jpg,Eddy,001,2021-08-04_10h29.54.279,Dog face experiment_fully sample_0-300,2021.1.4,Win32,143.4514417
,,,,,,q,1.2989,0,100,100,100,1,100,images/pixabay_dog_003305.jpg,images/flickr_dog_000019.jpg,Eddy,001,2021-08-04_10h29.54.279,Dog face experiment_fully sample_0-300,2021.1.4,Win32,143.4514417
,,,,,,q,0.9522,0,101,101,101,1,101,images/pixabay_dog_003305.jpg,images/flickr_dog_000261.jpg,Eddy,001,2021-08-04_10h29.54.279,Dog face experiment_fully sample_0-300,2021.1.4,Win32,143.4514417
,,,,,,q,1.3483,0,102,102,102,1,102,images/flickr_dog_000266.jpg,images/pixabay_dog_003859.jpg,Eddy,001,2021-08-04_10h29.54.279,Dog face experiment_fully sample_0-300,2021.1.4,Win32,143.4514417
,,,,,,q,1.7042,0,103,103,103,1,103,images/pixabay_dog_000042.jpg,images/pixabay_dog_000932.jpg,Eddy,001,2021-08-04_10h29.54.279,Dog face experiment_fully sample_0-300,2021.1.4,Win32,143.4514417
,,,,,,p,1.069,0,104,104,104,1,104,images/pixabay_dog_001712.jpg,images/pixabay_dog_003604.jpg,Eddy,001,2021-08-04_10h29.54.279,Dog face experiment_fully sample_0-300,2021.1.4,Win32,143.4514417
,,,,,,q,1.3861,0,105,105,105,1,105,images/pixabay_dog_002268.jpg,images/pixabay_dog_000525.jpg,Eddy,001,2021-08-04_10h29.54.279,Dog face experiment_fully sample_0-300,2021.1.4,Win32,143.4514417
,,,,,,p,1.3756,0,106,106,106,1,106,images/pixabay_dog_000525.jpg,images/pixabay_dog_001524.jpg,Eddy,001,2021-08-04_10h29.54.279,Dog face experiment_fully sample_0-300,2021.1.4,Win32,143.4514417
,,,,,,p,0.8821,0,107,107,107,1,107,images/pixabay_dog_000805.jpg,images/pixabay_dog_003310.jpg,Eddy,001,2021-08-04_10h29.54.279,Dog face experiment_fully sample_0-300,2021.1.4,Win32,143.4514417
,,,,,,p,0.9231,0,108,108,108,1,108,images/pixabay_dog_001960.jpg,images/pixabay_dog_000825.jpg,Eddy,001,2021-08-04_10h29.54.279,Dog face experiment_fully sample_0-300,2021.1.4,Win32,143.4514417
,,,,,,p,1.2325,0,109,109,109,1,109,images/pixabay_dog_002282.jpg,images/pixabay_dog_000825.jpg,Eddy,001,2021-08-04_10h29.54.279,Dog face experiment_fully sample_0-300,2021.1.4,Win32,143.4514417
,,,,,,q,1.3811,0,110,110,110,1,110,images/flickr_dog_000932.jpg,images/pixabay_dog_002649.jpg,Eddy,001,2021-08-04_10h29.54.279,Dog face experiment_fully sample_0-300,2021.1.4,Win32,143.4514417
,,,,,,p,2.1668,0,111,111,111,1,111,images/pixabay_dog_002268.jpg,images/pixabay_dog_000932.jpg,Eddy,001,2021-08-04_10h29.54.279,Dog face experiment_fully sample_0-300,2021.1.4,Win32,143.4514417
,,,,,,q,0.6528,0,112,112,112,1,112,images/pixabay_dog_001150.jpg,images/pixabay_dog_003727.jpg,Eddy,001,2021-08-04_10h29.54.279,Dog face experiment_fully sample_0-300,2021.1.4,Win32,143.4514417
,,,,,,q,3.5849,0,113,113,113,1,113,images/pixabay_dog_003829.jpg,images/pixabay_dog_001465.jpg,Eddy,001,2021-08-04_10h29.54.279,Dog face experiment_fully sample_0-300,2021.1.4,Win32,143.4514417
,,,,,,p,0.8367,0,114,114,114,1,114,images/flickr_dog_000232.jpg,images/pixabay_dog_003604.jpg,Eddy,001,2021-08-04_10h29.54.279,Dog face experiment_fully sample_0-300,2021.1.4,Win32,143.4514417
,,,,,,p,1.3898,0,115,115,115,1,115,images/pixabay_dog_002360.jpg,images/pixabay_dog_003604.jpg,Eddy,001,2021-08-04_10h29.54.279,Dog face experiment_fully sample_0-300,2021.1.4,Win32,143.4514417
,,,,,,q,1.0973,0,116,116,116,1,116,images/pixabay_dog_003604.jpg,images/pixabay_dog_003357.jpg,Eddy,001,2021-08-04_10h29.54.279,Dog face experiment_fully sample_0-300,2021.1.4,Win32,143.4514417
,,,,,,q,1.2058,0,117,117,117,1,117,images/pixabay_dog_003305.jpg,images/pixabay_dog_000853.jpg,Eddy,001,2021-08-04_10h29.54.279,Dog face experiment_fully sample_0-300,2021.1.4,Win32,143.4514417
,,,,,,p,1.0741,0,118,118,118,1,118,images/pixabay_dog_001255.jpg,images/pixabay_dog_000825.jpg,Eddy,001,2021-08-04_10h29.54.279,Dog face experiment_fully sample_0-300,2021.1.4,Win32,143.4514417
,,,,,,p,1.0346,0,119,119,119,1,119,images/pixabay_dog_002793.jpg,images/flickr_dog_001107.jpg,Eddy,001,2021-08-04_10h29.54.279,Dog face experiment_fully sample_0-300,2021.1.4,Win32,143.4514417
,,,,,,q,5.2321,0,120,120,120,1,120,images/flickr_dog_000232.jpg,images/pixabay_dog_003829.jpg,Eddy,001,2021-08-04_10h29.54.279,Dog face experiment_fully sample_0-300,2021.1.4,Win32,143.4514417
,,,,,,p,0.8468,0,121,121,121,1,121,images/pixabay_dog_002793.jpg,images/pixabay_dog_003310.jpg,Eddy,001,2021-08-04_10h29.54.279,Dog face experiment_fully sample_0-300,2021.1.4,Win32,143.4514417
,,,,,,p,0.9679,0,122,122,122,1,122,images/pixabay_dog_001960.jpg,images/pixabay_dog_003859.jpg,Eddy,001,2021-08-04_10h29.54.279,Dog face experiment_fully sample_0-300,2021.1.4,Win32,143.4514417
,,,,,,p,1.2043,0,123,123,123,1,123,images/pixabay_dog_003098.jpg,images/pixabay_dog_002861.jpg,Eddy,001,2021-08-04_10h29.54.279,Dog face experiment_fully sample_0-300,2021.1.4,Win32,143.4514417
,,,,,,p,1.5211,0,124,124,124,1,124,images/pixabay_dog_000914.jpg,images/pixabay_dog_003310.jpg,Eddy,001,2021-08-04_10h29.54.279,Dog face experiment_fully sample_0-300,2021.1.4,Win32,143.4514417
,,,,,,p,1.1196,0,125,125,125,1,125,images/pixabay_dog_003098.jpg,images/flickr_dog_000932.jpg,Eddy,001,2021-08-04_10h29.54.279,Dog face experiment_fully sample_0-300,2021.1.4,Win32,143.4514417
,,,,,,p,1.1335,0,126,126,126,1,126,images/flickr_dog_000083.jpg,images/pixabay_dog_002989.jpg,Eddy,001,2021-08-04_10h29.54.279,Dog face experiment_fully sample_0-300,2021.1.4,Win32,143.4514417
,,,,,,p,1.9775,0,127,127,127,1,127,images/pixabay_dog_003238.jpg,images/flickr_dog_000932.jpg,Eddy,001,2021-08-04_10h29.54.279,Dog face experiment_fully sample_0-300,2021.1.4,Win32,143.4514417
,,,,,,p,0.7522,0,128,128,128,1,128,images/pixabay_dog_002649.jpg,images/flickr_dog_000913.jpg,Eddy,001,2021-08-04_10h29.54.279,Dog face experiment_fully sample_0-300,2021.1.4,Win32,143.4514417
,,,,,,p,0.7311,0,129,129,129,1,129,images/pixabay_dog_002360.jpg,images/pixabay_dog_000825.jpg,Eddy,001,2021-08-04_10h29.54.279,Dog face experiment_fully sample_0-300,2021.1.4,Win32,143.4514417
,,,,,,q,0.8042,0,130,130,130,1,130,images/pixabay_dog_001843.jpg,images/pixabay_dog_003357.jpg,Eddy,001,2021-08-04_10h29.54.279,Dog face experiment_fully sample_0-300,2021.1.4,Win32,143.4514417
,,,,,,p,1.4702,0,131,131,131,1,131,images/pixabay_dog_002989.jpg,images/pixabay_dog_001524.jpg,Eddy,001,2021-08-04_10h29.54.279,Dog face experiment_fully sample_0-300,2021.1.4,Win32,143.4514417
,,,,,,p,0.8901,0,132,132,132,1,132,images/pixabay_dog_000042.jpg,images/pixabay_dog_003305.jpg,Eddy,001,2021-08-04_10h29.54.279,Dog face experiment_fully sample_0-300,2021.1.4,Win32,143.4514417
,,,,,,q,1.2663,0,133,133,133,1,133,images/flickr_dog_001079.jpg,images/pixabay_dog_003098.jpg,Eddy,001,2021-08-04_10h29.54.279,Dog face experiment_fully sample_0-300,2021.1.4,Win32,143.4514417
,,,,,,q,3.3502,0,134,134,134,1,134,images/pixabay_dog_000042.jpg,images/pixabay_dog_002268.jpg,Eddy,001,2021-08-04_10h29.54.279,Dog face experiment_fully sample_0-300,2021.1.4,Win32,143.4514417
,,,,,,q,0.9327,0,135,135,135,1,135,images/pixabay_dog_003971.jpg,images/pixabay_dog_000525.jpg,Eddy,001,2021-08-04_10h29.54.279,Dog face experiment_fully sample_0-300,2021.1.4,Win32,143.4514417
,,,,,,q,1.5722,0,136,136,136,1,136,images/flickr_dog_000279.jpg,images/flickr_dog_000913.jpg,Eddy,001,2021-08-04_10h29.54.279,Dog face experiment_fully sample_0-300,2021.1.4,Win32,143.4514417
,,,,,,p,6.357,0,137,137,137,1,137,images/pixabay_dog_000825.jpg,images/flickr_dog_001107.jpg,Eddy,001,2021-08-04_10h29.54.279,Dog face experiment_fully sample_0-300,2021.1.4,Win32,143.4514417
,,,,,,q,1.4914,0,138,138,138,1,138,images/pixabay_dog_002899.jpg,images/pixabay_dog_003238.jpg,Eddy,001,2021-08-04_10h29.54.279,Dog face experiment_fully sample_0-300,2021.1.4,Win32,143.4514417
,,,,,,p,1.4653,0,139,139,139,1,139,images/pixabay_dog_002268.jpg,images/flickr_dog_000261.jpg,Eddy,001,2021-08-04_10h29.54.279,Dog face experiment_fully sample_0-300,2021.1.4,Win32,143.4514417
,,,,,,p,1.4268,0,140,140,140,1,140,images/flickr_dog_000201.jpg,images/pixabay_dog_001843.jpg,Eddy,001,2021-08-04_10h29.54.279,Dog face experiment_fully sample_0-300,2021.1.4,Win32,143.4514417
,,,,,,q,0.902,0,141,141,141,1,141,images/flickr_dog_000019.jpg,images/pixabay_dog_000952.jpg,Eddy,001,2021-08-04_10h29.54.279,Dog face experiment_fully sample_0-300,2021.1.4,Win32,143.4514417
,,,,,,q,1.6485,0,142,142,142,1,142,images/pixabay_dog_003604.jpg,images/flickr_dog_000194.jpg,Eddy,001,2021-08-04_10h29.54.279,Dog face experiment_fully sample_0-300,2021.1.4,Win32,143.4514417
,,,,,,q,0.7992,0,143,143,143,1,143,images/pixabay_dog_000825.jpg,images/pixabay_dog_003357.jpg,Eddy,001,2021-08-04_10h29.54.279,Dog face experiment_fully sample_0-300,2021.1.4,Win32,143.4514417
,,,,,,p,2.7222,0,144,144,144,1,144,images/pixabay_dog_003305.jpg,images/flickr_dog_000861.jpg,Eddy,001,2021-08-04_10h29.54.279,Dog face experiment_fully sample_0-300,2021.1.4,Win32,143.4514417
,,,,,,p,2.6479,0,145,145,145,1,145,images/flickr_dog_000566.jpg,images/pixabay_dog_000805.jpg,Eddy,001,2021-08-04_10h29.54.279,Dog face experiment_fully sample_0-300,2021.1.4,Win32,143.4514417
,,,,,,q,1.5632,0,146,146,146,1,146,images/pixabay_dog_000914.jpg,images/pixabay_dog_003829.jpg,Eddy,001,2021-08-04_10h29.54.279,Dog face experiment_fully sample_0-300,2021.1.4,Win32,143.4514417
,,,,,,p,0.765,0,147,147,147,1,147,images/flickr_dog_001079.jpg,images/flickr_dog_000861.jpg,Eddy,001,2021-08-04_10h29.54.279,Dog face experiment_fully sample_0-300,2021.1.4,Win32,143.4514417
,,,,,,p,1.8341,0,148,148,148,1,148,images/flickr_dog_000261.jpg,images/pixabay_dog_001255.jpg,Eddy,001,2021-08-04_10h29.54.279,Dog face experiment_fully sample_0-300,2021.1.4,Win32,143.4514417
,,,,,,p,0.8612,0,149,149,149,1,149,images/pixabay_dog_002899.jpg,images/pixabay_dog_000825.jpg,Eddy,001,2021-08-04_10h29.54.279,Dog face experiment_fully sample_0-300,2021.1.4,Win32,143.4514417
,,,,,,q,2.4245,0,150,150,150,1,150,images/flickr_dog_000279.jpg,images/pixabay_dog_003727.jpg,Eddy,001,2021-08-04_10h29.54.279,Dog face experiment_fully sample_0-300,2021.1.4,Win32,143.4514417
,,,,,,p,2.7309,0,151,151,151,1,151,images/pixabay_dog_000952.jpg,images/pixabay_dog_001960.jpg,Eddy,001,2021-08-04_10h29.54.279,Dog face experiment_fully sample_0-300,2021.1.4,Win32,143.4514417
,,,,,,q,1.0904,0,152,152,152,1,152,images/pixabay_dog_001255.jpg,images/pixabay_dog_000853.jpg,Eddy,001,2021-08-04_10h29.54.279,Dog face experiment_fully sample_0-300,2021.1.4,Win32,143.4514417
,,,,,,p,1.7694,0,153,153,153,1,153,images/flickr_dog_000279.jpg,images/pixabay_dog_002649.jpg,Eddy,001,2021-08-04_10h29.54.279,Dog face experiment_fully sample_0-300,2021.1.4,Win32,143.4514417
,,,,,,p,1.009,0,154,154,154,1,154,images/flickr_dog_000932.jpg,images/pixabay_dog_003310.jpg,Eddy,001,2021-08-04_10h29.54.279,Dog face experiment_fully sample_0-300,2021.1.4,Win32,143.4514417
,,,,,,p,1.2167,0,155,155,155,1,155,images/flickr_dog_000261.jpg,images/pixabay_dog_000914.jpg,Eddy,001,2021-08-04_10h29.54.279,Dog face experiment_fully sample_0-300,2021.1.4,Win32,143.4514417
,,,,,,p,0.9945,0,156,156,156,1,156,images/pixabay_dog_000805.jpg,images/flickr_dog_001107.jpg,Eddy,001,2021-08-04_10h29.54.279,Dog face experiment_fully sample_0-300,2021.1.4,Win32,143.4514417
,,,,,,q,0.6324,0,157,157,157,1,157,images/pixabay_dog_003305.jpg,images/pixabay_dog_001524.jpg,Eddy,001,2021-08-04_10h29.54.279,Dog face experiment_fully sample_0-300,2021.1.4,Win32,143.4514417
,,,,,,q,1.3552,0,158,158,158,1,158,images/pixabay_dog_002899.jpg,images/pixabay_dog_002282.jpg,Eddy,001,2021-08-04_10h29.54.279,Dog face experiment_fully sample_0-300,2021.1.4,Win32,143.4514417
,,,,,,q,1.9626,0,159,159,159,1,159,images/pixabay_dog_003305.jpg,images/flickr_dog_000194.jpg,Eddy,001,2021-08-04_10h29.54.279,Dog face experiment_fully sample_0-300,2021.1.4,Win32,143.4514417
,,,,,,p,1.1265,0,160,160,160,1,160,images/pixabay_dog_000853.jpg,images/flickr_dog_000194.jpg,Eddy,001,2021-08-04_10h29.54.279,Dog face experiment_fully sample_0-300,2021.1.4,Win32,143.4514417
,,,,,,q,2.4051,0,161,161,161,1,161,images/flickr_dog_000279.jpg,images/pixabay_dog_000932.jpg,Eddy,001,2021-08-04_10h29.54.279,Dog face experiment_fully sample_0-300,2021.1.4,Win32,143.4514417
,,,,,,q,1.4817,0,162,162,162,1,162,images/pixabay_dog_002360.jpg,images/pixabay_dog_002596.jpg,Eddy,001,2021-08-04_10h29.54.279,Dog face experiment_fully sample_0-300,2021.1.4,Win32,143.4514417
,,,,,,p,1.9029,0,163,163,163,1,163,images/pixabay_dog_002793.jpg,images/pixabay_dog_003829.jpg,Eddy,001,2021-08-04_10h29.54.279,Dog face experiment_fully sample_0-300,2021.1.4,Win32,143.4514417
,,,,,,q,0.8095,0,164,164,164,1,164,images/pixabay_dog_002793.jpg,images/pixabay_dog_001465.jpg,Eddy,001,2021-08-04_10h29.54.279,Dog face experiment_fully sample_0-300,2021.1.4,Win32,143.4514417
,,,,,,q,1.1974,0,165,165,165,1,165,images/pixabay_dog_003829.jpg,images/pixabay_dog_003357.jpg,Eddy,001,2021-08-04_10h29.54.279,Dog face experiment_fully sample_0-300,2021.1.4,Win32,143.4514417
,,,,,,q,1.1665,0,166,166,166,1,166,images/flickr_dog_000019.jpg,images/flickr_dog_000232.jpg,Eddy,001,2021-08-04_10h29.54.279,Dog face experiment_fully sample_0-300,2021.1.4,Win32,143.4514417
,,,,,,q,1.0721,0,167,167,167,1,167,images/pixabay_dog_002899.jpg,images/pixabay_dog_001960.jpg,Eddy,001,2021-08-04_10h29.54.279,Dog face experiment_fully sample_0-300,2021.1.4,Win32,143.4514417
,,,,,,p,0.9173,0,168,168,168,1,168,images/pixabay_dog_002360.jpg,images/pixabay_dog_003859.jpg,Eddy,001,2021-08-04_10h29.54.279,Dog face experiment_fully sample_0-300,2021.1.4,Win32,143.4514417
,,,,,,q,1.0664,0,169,169,169,1,169,images/pixabay_dog_003604.jpg,images/pixabay_dog_002989.jpg,Eddy,001,2021-08-04_10h29.54.279,Dog face experiment_fully sample_0-300,2021.1.4,Win32,143.4514417
,,,,,,q,3.5983,0,170,170,170,1,170,images/flickr_dog_001079.jpg,images/pixabay_dog_001960.jpg,Eddy,001,2021-08-04_10h29.54.279,Dog face experiment_fully sample_0-300,2021.1.4,Win32,143.4514417
,,,,,,q,1.0029,0,171,171,171,1,171,images/flickr_dog_000266.jpg,images/pixabay_dog_002596.jpg,Eddy,001,2021-08-04_10h29.54.279,Dog face experiment_fully sample_0-300,2021.1.4,Win32,143.4514417
,,,,,,p,3.6598,0,172,172,172,1,172,images/pixabay_dog_000744.jpg,images/pixabay_dog_001712.jpg,Eddy,001,2021-08-04_10h29.54.279,Dog face experiment_fully sample_0-300,2021.1.4,Win32,143.4514417
,,,,,,p,0.75,0,173,173,173,1,173,images/pixabay_dog_000042.jpg,images/pixabay_dog_001843.jpg,Eddy,001,2021-08-04_10h29.54.279,Dog face experiment_fully sample_0-300,2021.1.4,Win32,143.4514417
,,,,,,p,0.7442,0,174,174,174,1,174,images/pixabay_dog_003238.jpg,images/pixabay_dog_000825.jpg,Eddy,001,2021-08-04_10h29.54.279,Dog face experiment_fully sample_0-300,2021.1.4,Win32,143.4514417
,,,,,,q,0.8408,0,175,175,175,1,175,images/pixabay_dog_002282.jpg,images/pixabay_dog_001465.jpg,Eddy,001,2021-08-04_10h29.54.279,Dog face experiment_fully sample_0-300,2021.1.4,Win32,143.4514417
,,,,,,p,1.0212,0,176,176,176,1,176,images/pixabay_dog_003238.jpg,images/flickr_dog_000913.jpg,Eddy,001,2021-08-04_10h29.54.279,Dog face experiment_fully sample_0-300,2021.1.4,Win32,143.4514417
,,,,,,q,0.9043,0,177,177,177,1,177,images/pixabay_dog_003098.jpg,images/pixabay_dog_001255.jpg,Eddy,001,2021-08-04_10h29.54.279,Dog face experiment_fully sample_0-300,2021.1.4,Win32,143.4514417
,,,,,,p,1.1123,0,178,178,178,1,178,images/flickr_dog_000913.jpg,images/pixabay_dog_001843.jpg,Eddy,001,2021-08-04_10h29.54.279,Dog face experiment_fully sample_0-300,2021.1.4,Win32,143.4514417
,,,,,,p,3.7851,0,179,179,179,1,179,images/pixabay_dog_001255.jpg,images/flickr_dog_000279.jpg,Eddy,001,2021-08-04_10h29.54.279,Dog face experiment_fully sample_0-300,2021.1.4,Win32,143.4514417
,,,,,,p,0.7146,0,180,180,180,1,180,images/pixabay_dog_002793.jpg,images/flickr_dog_000913.jpg,Eddy,001,2021-08-04_10h29.54.279,Dog face experiment_fully sample_0-300,2021.1.4,Win32,143.4514417
,,,,,,q,0.9312,0,181,181,181,1,181,images/pixabay_dog_003971.jpg,images/pixabay_dog_003829.jpg,Eddy,001,2021-08-04_10h29.54.279,Dog face experiment_fully sample_0-300,2021.1.4,Win32,143.4514417
,,,,,,q,5.1563,0,182,182,182,1,182,images/pixabay_dog_003238.jpg,images/pixabay_dog_000525.jpg,Eddy,001,2021-08-04_10h29.54.279,Dog face experiment_fully sample_0-300,2021.1.4,Win32,143.4514417
,,,,,,p,0.9185,0,183,183,183,1,183,images/flickr_dog_000266.jpg,images/pixabay_dog_000825.jpg,Eddy,001,2021-08-04_10h29.54.279,Dog face experiment_fully sample_0-300,2021.1.4,Win32,143.4514417
,,,,,,p,1.3962,0,184,184,184,1,184,images/flickr_dog_000261.jpg,images/flickr_dog_000232.jpg,Eddy,001,2021-08-04_10h29.54.279,Dog face experiment_fully sample_0-300,2021.1.4,Win32,143.4514417
,,,,,,q,1.8904,0,185,185,185,1,185,images/pixabay_dog_002360.jpg,images/pixabay_dog_002793.jpg,Eddy,001,2021-08-04_10h29.54.279,Dog face experiment_fully sample_0-300,2021.1.4,Win32,143.4514417
,,,,,,p,2.1637,0,186,186,186,1,186,images/flickr_dog_000279.jpg,images/pixabay_dog_003829.jpg,Eddy,001,2021-08-04_10h29.54.279,Dog face experiment_fully sample_0-300,2021.1.4,Win32,143.4514417
,,,,,,p,0.7437,0,187,187,187,1,187,images/pixabay_dog_001255.jpg,images/pixabay_dog_001524.jpg,Eddy,001,2021-08-04_10h29.54.279,Dog face experiment_fully sample_0-300,2021.1.4,Win32,143.4514417
,,,,,,q,0.8822,0,188,188,188,1,188,images/pixabay_dog_002649.jpg,images/pixabay_dog_001465.jpg,Eddy,001,2021-08-04_10h29.54.279,Dog face experiment_fully sample_0-300,2021.1.4,Win32,143.4514417
,,,,,,p,0.6816,0,189,189,189,1,189,images/pixabay_dog_001712.jpg,images/pixabay_dog_000825.jpg,Eddy,001,2021-08-04_10h29.54.279,Dog face experiment_fully sample_0-300,2021.1.4,Win32,143.4514417
,,,,,,p,0.8418,0,190,190,190,1,190,images/pixabay_dog_002744.jpg,images/pixabay_dog_000932.jpg,Eddy,001,2021-08-04_10h29.54.279,Dog face experiment_fully sample_0-300,2021.1.4,Win32,143.4514417
,,,,,,p,0.6279,0,191,191,191,1,191,images/pixabay_dog_003310.jpg,images/flickr_dog_001107.jpg,Eddy,001,2021-08-04_10h29.54.279,Dog face experiment_fully sample_0-300,2021.1.4,Win32,143.4514417
,,,,,,q,1.3652,0,192,192,192,1,192,images/flickr_dog_000266.jpg,images/pixabay_dog_000853.jpg,Eddy,001,2021-08-04_10h29.54.279,Dog face experiment_fully sample_0-300,2021.1.4,Win32,143.4514417
,,,,,,p,0.9516,0,193,193,193,1,193,images/pixabay_dog_000853.jpg,images/pixabay_dog_002596.jpg,Eddy,001,2021-08-04_10h29.54.279,Dog face experiment_fully sample_0-300,2021.1.4,Win32,143.4514417
,,,,,,p,1.1465,0,194,194,194,1,194,images/pixabay_dog_000952.jpg,images/pixabay_dog_000932.jpg,Eddy,001,2021-08-04_10h29.54.279,Dog face experiment_fully sample_0-300,2021.1.4,Win32,143.4514417
,,,,,,q,1.0017,0,195,195,195,1,195,images/flickr_dog_000861.jpg,images/pixabay_dog_003859.jpg,Eddy,001,2021-08-04_10h29.54.279,Dog face experiment_fully sample_0-300,2021.1.4,Win32,143.4514417
,,,,,,q,1.1311,0,196,196,196,1,196,images/pixabay_dog_001150.jpg,images/pixabay_dog_002989.jpg,Eddy,001,2021-08-04_10h29.54.279,Dog face experiment_fully sample_0-300,2021.1.4,Win32,143.4514417
,,,,,,q,1.6461,0,197,197,197,1,197,images/pixabay_dog_002360.jpg,images/pixabay_dog_000853.jpg,Eddy,001,2021-08-04_10h29.54.279,Dog face experiment_fully sample_0-300,2021.1.4,Win32,143.4514417
,,,,,,q,1.4456,0,198,198,198,1,198,images/pixabay_dog_000042.jpg,images/pixabay_dog_000525.jpg,Eddy,001,2021-08-04_10h29.54.279,Dog face experiment_fully sample_0-300,2021.1.4,Win32,143.4514417
,,,,,,p,0.9708,0,199,199,199,1,199,images/pixabay_dog_002744.jpg,images/pixabay_dog_003859.jpg,Eddy,001,2021-08-04_10h29.54.279,Dog face experiment_fully sample_0-300,2021.1.4,Win32,143.4514417
,,,,,,p,0.8411,0,200,200,200,1,200,images/pixabay_dog_002744.jpg,images/pixabay_dog_003604.jpg,Eddy,001,2021-08-04_10h29.54.279,Dog face experiment_fully sample_0-300,2021.1.4,Win32,143.4514417
,,,,,,p,1.7307,0,201,201,201,1,201,images/pixabay_dog_001960.jpg,images/pixabay_dog_003357.jpg,Eddy,001,2021-08-04_10h29.54.279,Dog face experiment_fully sample_0-300,2021.1.4,Win32,143.4514417
,,,,,,q,1.0228,0,202,202,202,1,202,images/pixabay_dog_002649.jpg,images/pixabay_dog_000952.jpg,Eddy,001,2021-08-04_10h29.54.279,Dog face experiment_fully sample_0-300,2021.1.4,Win32,143.4514417
,,,,,,p,1.7439,0,203,203,203,1,203,images/pixabay_dog_003238.jpg,images/flickr_dog_000232.jpg,Eddy,001,2021-08-04_10h29.54.279,Dog face experiment_fully sample_0-300,2021.1.4,Win32,143.4514417
,,,,,,q,1.128,0,204,204,204,1,204,images/flickr_dog_001079.jpg,images/pixabay_dog_002793.jpg,Eddy,001,2021-08-04_10h29.54.279,Dog face experiment_fully sample_0-300,2021.1.4,Win32,143.4514417
,,,,,,q,0.9285,0,205,205,205,1,205,images/pixabay_dog_003971.jpg,images/pixabay_dog_001960.jpg,Eddy,001,2021-08-04_10h29.54.279,Dog face experiment_fully sample_0-300,2021.1.4,Win32,143.4514417
,,,,,,p,0.9459,0,206,206,206,1,206,images/pixabay_dog_001712.jpg,images/flickr_dog_000194.jpg,Eddy,001,2021-08-04_10h29.54.279,Dog face experiment_fully sample_0-300,2021.1.4,Win32,143.4514417
,,,,,,q,1.7211,0,207,207,207,1,207,images/flickr_dog_000261.jpg,images/pixabay_dog_001960.jpg,Eddy,001,2021-08-04_10h29.54.279,Dog face experiment_fully sample_0-300,2021.1.4,Win32,143.4514417
,,,,,,q,0.9948,0,208,208,208,1,208,images/pixabay_dog_003305.jpg,images/pixabay_dog_002649.jpg,Eddy,001,2021-08-04_10h29.54.279,Dog face experiment_fully sample_0-300,2021.1.4,Win32,143.4514417
,,,,,,p,1.3034,0,209,209,209,1,209,images/pixabay_dog_002744.jpg,images/flickr_dog_000019.jpg,Eddy,001,2021-08-04_10h29.54.279,Dog face experiment_fully sample_0-300,2021.1.4,Win32,143.4514417
,,,,,,p,1.9928,0,210,210,210,1,210,images/pixabay_dog_003238.jpg,images/pixabay_dog_000805.jpg,Eddy,001,2021-08-04_10h29.54.279,Dog face experiment_fully sample_0-300,2021.1.4,Win32,143.4514417
,,,,,,p,0.8358,0,211,211,211,1,211,images/flickr_dog_000566.jpg,images/flickr_dog_000083.jpg,Eddy,001,2021-08-04_10h29.54.279,Dog face experiment_fully sample_0-300,2021.1.4,Win32,143.4514417
,,,,,,p,0.7736,0,212,212,212,1,212,images/pixabay_dog_003098.jpg,images/flickr_dog_000019.jpg,Eddy,001,2021-08-04_10h29.54.279,Dog face experiment_fully sample_0-300,2021.1.4,Win32,143.4514417
,,,,,,p,0.9398,0,213,213,213,1,213,images/pixabay_dog_000914.jpg,images/pixabay_dog_002649.jpg,Eddy,001,2021-08-04_10h29.54.279,Dog face experiment_fully sample_0-300,2021.1.4,Win32,143.4514417
,,,,,,p,0.8064,0,214,214,214,1,214,images/flickr_dog_000266.jpg,images/pixabay_dog_003310.jpg,Eddy,001,2021-08-04_10h29.54.279,Dog face experiment_fully sample_0-300,2021.1.4,Win32,143.4514417
,,,,,,q,1.578,0,215,215,215,1,215,images/flickr_dog_000279.jpg,images/pixabay_dog_000952.jpg,Eddy,001,2021-08-04_10h29.54.279,Dog face experiment_fully sample_0-300,2021.1.4,Win32,143.4514417
,,,,,,p,0.89,0,216,216,216,1,216,images/flickr_dog_000279.jpg,images/flickr_dog_001107.jpg,Eddy,001,2021-08-04_10h29.54.279,Dog face experiment_fully sample_0-300,2021.1.4,Win32,143.4514417
,,,,,,p,0.8618,0,217,217,217,1,217,images/pixabay_dog_003098.jpg,images/flickr_dog_001107.jpg,Eddy,001,2021-08-04_10h29.54.279,Dog face experiment_fully sample_0-300,2021.1.4,Win32,143.4514417
,,,,,,p,0.9471,0,218,218,218,1,218,images/pixabay_dog_000805.jpg,images/pixabay_dog_000825.jpg,Eddy,001,2021-08-04_10h29.54.279,Dog face experiment_fully sample_0-300,2021.1.4,Win32,143.4514417
,,,,,,p,1.8684,0,219,219,219,1,219,images/pixabay_dog_001712.jpg,images/flickr_dog_000201.jpg,Eddy,001,2021-08-04_10h29.54.279,Dog face experiment_fully sample_0-300,2021.1.4,Win32,143.4514417
,,,,,,q,0.9582,0,220,220,220,1,220,images/flickr_dog_000861.jpg,images/pixabay_dog_002989.jpg,Eddy,001,2021-08-04_10h29.54.279,Dog face experiment_fully sample_0-300,2021.1.4,Win32,143.4514417
,,,,,,q,1.4015,0,221,221,221,1,221,images/flickr_dog_001079.jpg,images/pixabay_dog_001712.jpg,Eddy,001,2021-08-04_10h29.54.279,Dog face experiment_fully sample_0-300,2021.1.4,Win32,143.4514417
,,,,,,p,0.9551,0,222,222,222,1,222,images/pixabay_dog_001712.jpg,images/flickr_dog_000266.jpg,Eddy,001,2021-08-04_10h29.54.279,Dog face experiment_fully sample_0-300,2021.1.4,Win32,143.4514417
,,,,,,q,0.8139,0,223,223,223,1,223,images/flickr_dog_000861.jpg,images/pixabay_dog_001255.jpg,Eddy,001,2021-08-04_10h29.54.279,Dog face experiment_fully sample_0-300,2021.1.4,Win32,143.4514417
,,,,,,q,0.7948,0,224,224,224,1,224,images/pixabay_dog_001150.jpg,images/pixabay_dog_001960.jpg,Eddy,001,2021-08-04_10h29.54.279,Dog face experiment_fully sample_0-300,2021.1.4,Win32,143.4514417
,,,,,,p,0.694,0,225,225,225,1,225,images/pixabay_dog_002861.jpg,images/pixabay_dog_002649.jpg,Eddy,001,2021-08-04_10h29.54.279,Dog face experiment_fully sample_0-300,2021.1.4,Win32,143.4514417
,,,,,,p,3.2016,0,226,226,226,1,226,images/pixabay_dog_002268.jpg,images/pixabay_dog_000805.jpg,Eddy,001,2021-08-04_10h29.54.279,Dog face experiment_fully sample_0-300,2021.1.4,Win32,143.4514417
,,,,,,q,0.9313,0,227,227,227,1,227,images/pixabay_dog_002899.jpg,images/pixabay_dog_002596.jpg,Eddy,001,2021-08-04_10h29.54.279,Dog face experiment_fully sample_0-300,2021.1.4,Win32,143.4514417
,,,,,,p,0.9059,0,228,228,228,1,228,images/pixabay_dog_002360.jpg,images/pixabay_dog_001843.jpg,Eddy,001,2021-08-04_10h29.54.279,Dog face experiment_fully sample_0-300,2021.1.4,Win32,143.4514417
,,,,,,q,1.2859,0,229,229,229,1,229,images/pixabay_dog_003859.jpg,images/flickr_dog_000913.jpg,Eddy,001,2021-08-04_10h29.54.279,Dog face experiment_fully sample_0-300,2021.1.4,Win32,143.4514417
,,,,,,q,1.7869,0,230,230,230,1,230,images/flickr_dog_000566.jpg,images/pixabay_dog_001712.jpg,Eddy,001,2021-08-04_10h29.54.279,Dog face experiment_fully sample_0-300,2021.1.4,Win32,143.4514417
,,,,,,p,1.2642,0,231,231,231,1,231,images/pixabay_dog_000914.jpg,images/pixabay_dog_002282.jpg,Eddy,001,2021-08-04_10h29.54.279,Dog face experiment_fully sample_0-300,2021.1.4,Win32,143.4514417
,,,,,,p,0.8056,0,232,232,232,1,232,images/pixabay_dog_002268.jpg,images/pixabay_dog_001843.jpg,Eddy,001,2021-08-04_10h29.54.279,Dog face experiment_fully sample_0-300,2021.1.4,Win32,143.4514417
,,,,,,q,1.2583,0,233,233,233,1,233,images/pixabay_dog_000805.jpg,images/pixabay_dog_002649.jpg,Eddy,001,2021-08-04_10h29.54.279,Dog face experiment_fully sample_0-300,2021.1.4,Win32,143.4514417
,,,,,,p,0.7874,0,234,234,234,1,234,images/pixabay_dog_002793.jpg,images/pixabay_dog_003859.jpg,Eddy,001,2021-08-04_10h29.54.279,Dog face experiment_fully sample_0-300,2021.1.4,Win32,143.4514417
,,,,,,q,0.8267,0,235,235,235,1,235,images/pixabay_dog_002899.jpg,images/flickr_dog_000019.jpg,Eddy,001,2021-08-04_10h29.54.279,Dog face experiment_fully sample_0-300,2021.1.4,Win32,143.4514417
,,,,,,p,0.8032,0,236,236,236,1,236,images/pixabay_dog_002268.jpg,images/pixabay_dog_003604.jpg,Eddy,001,2021-08-04_10h29.54.279,Dog face experiment_fully sample_0-300,2021.1.4,Win32,143.4514417
,,,,,,p,0.9866,0,237,237,237,1,237,images/pixabay_dog_003238.jpg,images/pixabay_dog_002649.jpg,Eddy,001,2021-08-04_10h29.54.279,Dog face experiment_fully sample_0-300,2021.1.4,Win32,143.4514417
,,,,,,q,0.608,0,238,238,238,1,238,images/pixabay_dog_003604.jpg,images/pixabay_dog_000952.jpg,Eddy,001,2021-08-04_10h29.54.279,Dog face experiment_fully sample_0-300,2021.1.4,Win32,143.4514417
,,,,,,q,2.1903,0,239,239,239,1,239,images/pixabay_dog_003829.jpg,images/pixabay_dog_000932.jpg,Eddy,001,2021-08-04_10h29.54.279,Dog face experiment_fully sample_0-300,2021.1.4,Win32,143.4514417
,,,,,,q,1.0831,0,240,240,240,1,240,images/pixabay_dog_003310.jpg,images/pixabay_dog_003357.jpg,Eddy,001,2021-08-04_10h29.54.279,Dog face experiment_fully sample_0-300,2021.1.4,Win32,143.4514417
,,,,,,p,0.7018,0,241,241,241,1,241,images/flickr_dog_001079.jpg,images/pixabay_dog_001843.jpg,Eddy,001,2021-08-04_10h29.54.279,Dog face experiment_fully sample_0-300,2021.1.4,Win32,143.4514417
,,,,,,q,0.6186,0,242,242,242,1,242,images/flickr_dog_001107.jpg,images/pixabay_dog_001843.jpg,Eddy,001,2021-08-04_10h29.54.279,Dog face experiment_fully sample_0-300,2021.1.4,Win32,143.4514417
,,,,,,q,1.1464,0,243,243,243,1,243,images/flickr_dog_000861.jpg,images/flickr_dog_000232.jpg,Eddy,001,2021-08-04_10h29.54.279,Dog face experiment_fully sample_0-300,2021.1.4,Win32,143.4514417
,,,,,,q,2.7119,0,244,244,244,1,244,images/flickr_dog_000083.jpg,images/pixabay_dog_003357.jpg,Eddy,001,2021-08-04_10h29.54.279,Dog face experiment_fully sample_0-300,2021.1.4,Win32,143.4514417
,,,,,,q,0.8222,0,245,245,245,1,245,images/pixabay_dog_003305.jpg,images/pixabay_dog_003727.jpg,Eddy,001,2021-08-04_10h29.54.279,Dog face experiment_fully sample_0-300,2021.1.4,Win32,143.4514417
,,,,,,q,1.0219,0,246,246,246,1,246,images/pixabay_dog_001150.jpg,images/flickr_dog_000932.jpg,Eddy,001,2021-08-04_10h29.54.279,Dog face experiment_fully sample_0-300,2021.1.4,Win32,143.4514417
,,,,,,q,0.9463,0,247,247,247,1,247,images/flickr_dog_000266.jpg,images/pixabay_dog_002989.jpg,Eddy,001,2021-08-04_10h29.54.279,Dog face experiment_fully sample_0-300,2021.1.4,Win32,143.4514417
,,,,,,p,0.716,0,248,248,248,1,248,images/pixabay_dog_002596.jpg,images/flickr_dog_001107.jpg,Eddy,001,2021-08-04_10h29.54.279,Dog face experiment_fully sample_0-300,2021.1.4,Win32,143.4514417
,,,,,,q,2.4038,0,249,249,249,1,249,images/pixabay_dog_000744.jpg,images/pixabay_dog_001960.jpg,Eddy,001,2021-08-04_10h29.54.279,Dog face experiment_fully sample_0-300,2021.1.4,Win32,143.4514417
,,,,,,p,0.9539,0,250,250,250,1,250,images/flickr_dog_000232.jpg,images/pixabay_dog_002282.jpg,Eddy,001,2021-08-04_10h29.54.279,Dog face experiment_fully sample_0-300,2021.1.4,Win32,143.4514417
,,,,,,q,0.8771,0,251,251,251,1,251,images/pixabay_dog_002744.jpg,images/pixabay_dog_003727.jpg,Eddy,001,2021-08-04_10h29.54.279,Dog face experiment_fully sample_0-300,2021.1.4,Win32,143.4514417
,,,,,,p,0.9316,0,252,252,252,1,252,images/pixabay_dog_002861.jpg,images/flickr_dog_000932.jpg,Eddy,001,2021-08-04_10h29.54.279,Dog face experiment_fully sample_0-300,2021.1.4,Win32,143.4514417
,,,,,,q,3.4117,0,253,253,253,1,253,images/pixabay_dog_001524.jpg,images/pixabay_dog_003357.jpg,Eddy,001,2021-08-04_10h29.54.279,Dog face experiment_fully sample_0-300,2021.1.4,Win32,143.4514417
,,,,,,p,2.5872,0,254,254,254,1,254,images/pixabay_dog_000744.jpg,images/pixabay_dog_000932.jpg,Eddy,001,2021-08-04_10h29.54.279,Dog face experiment_fully sample_0-300,2021.1.4,Win32,143.4514417
,,,,,,p,0.9093,0,255,255,255,1,255,images/pixabay_dog_002360.jpg,images/pixabay_dog_003310.jpg,Eddy,001,2021-08-04_10h29.54.279,Dog face experiment_fully sample_0-300,2021.1.4,Win32,143.4514417
,,,,,,p,1.2435,0,256,256,256,1,256,images/pixabay_dog_002861.jpg,images/pixabay_dog_001712.jpg,Eddy,001,2021-08-04_10h29.54.279,Dog face experiment_fully sample_0-300,2021.1.4,Win32,143.4514417
,,,,,,p,1.2027,0,257,257,257,1,257,images/flickr_dog_000261.jpg,images/pixabay_dog_000932.jpg,Eddy,001,2021-08-04_10h29.54.279,Dog face experiment_fully sample_0-300,2021.1.4,Win32,143.4514417
,,,,,,p,1.5701,0,258,258,258,1,258,images/pixabay_dog_003098.jpg,images/pixabay_dog_000825.jpg,Eddy,001,2021-08-04_10h29.54.279,Dog face experiment_fully sample_0-300,2021.1.4,Win32,143.4514417
,,,,,,q,1.653,0,259,259,259,1,259,images/flickr_dog_000194.jpg,images/pixabay_dog_001524.jpg,Eddy,001,2021-08-04_10h29.54.279,Dog face experiment_fully sample_0-300,2021.1.4,Win32,143.4514417
,,,,,,p,1.871,0,260,260,260,1,260,images/flickr_dog_000279.jpg,images/pixabay_dog_002989.jpg,Eddy,001,2021-08-04_10h29.54.279,Dog face experiment_fully sample_0-300,2021.1.4,Win32,143.4514417
,,,,,,q,0.8477,0,261,261,261,1,261,images/pixabay_dog_003604.jpg,images/flickr_dog_000913.jpg,Eddy,001,2021-08-04_10h29.54.279,Dog face experiment_fully sample_0-300,2021.1.4,Win32,143.4514417
,,,,,,p,1.4651,0,262,262,262,1,262,images/pixabay_dog_003098.jpg,images/flickr_dog_000201.jpg,Eddy,001,2021-08-04_10h29.54.279,Dog face experiment_fully sample_0-300,2021.1.4,Win32,143.4514417
,,,,,,p,1.1224,0,263,263,263,1,263,images/pixabay_dog_001150.jpg,images/flickr_dog_000861.jpg,Eddy,001,2021-08-04_10h29.54.279,Dog face experiment_fully sample_0-300,2021.1.4,Win32,143.4514417
,,,,,,q,1.179,0,264,264,264,1,264,images/flickr_dog_000201.jpg,images/pixabay_dog_000952.jpg,Eddy,001,2021-08-04_10h29.54.279,Dog face experiment_fully sample_0-300,2021.1.4,Win32,143.4514417
,,,,,,p,0.835,0,265,265,265,1,265,images/pixabay_dog_003098.jpg,images/pixabay_dog_003310.jpg,Eddy,001,2021-08-04_10h29.54.279,Dog face experiment_fully sample_0-300,2021.1.4,Win32,143.4514417
,,,,,,p,0.918,0,266,266,266,1,266,images/flickr_dog_000019.jpg,images/flickr_dog_000194.jpg,Eddy,001,2021-08-04_10h29.54.279,Dog face experiment_fully sample_0-300,2021.1.4,Win32,143.4514417
,,,,,,p,1.3061,0,267,267,267,1,267,images/flickr_dog_001079.jpg,images/flickr_dog_000194.jpg,Eddy,001,2021-08-04_10h29.54.279,Dog face experiment_fully sample_0-300,2021.1.4,Win32,143.4514417
,,,,,,p,1.2808,0,268,268,268,1,268,images/pixabay_dog_003098.jpg,images/flickr_dog_000279.jpg,Eddy,001,2021-08-04_10h29.54.279,Dog face experiment_fully sample_0-300,2021.1.4,Win32,143.4514417
,,,,,,q,0.9585,0,269,269,269,1,269,images/pixabay_dog_003971.jpg,images/pixabay_dog_000932.jpg,Eddy,001,2021-08-04_10h29.54.279,Dog face experiment_fully sample_0-300,2021.1.4,Win32,143.4514417
,,,,,,p,0.7849,0,270,270,270,1,270,images/pixabay_dog_002649.jpg,images/flickr_dog_000194.jpg,Eddy,001,2021-08-04_10h29.54.279,Dog face experiment_fully sample_0-300,2021.1.4,Win32,143.4514417
,,,,,,p,0.9362,0,271,271,271,1,271,images/flickr_dog_000083.jpg,images/pixabay_dog_000825.jpg,Eddy,001,2021-08-04_10h29.54.279,Dog face experiment_fully sample_0-300,2021.1.4,Win32,143.4514417
,,,,,,q,0.8272,0,272,272,272,1,272,images/pixabay_dog_003971.jpg,images/pixabay_dog_002861.jpg,Eddy,001,2021-08-04_10h29.54.279,Dog face experiment_fully sample_0-300,2021.1.4,Win32,143.4514417
,,,,,,q,0.987,0,273,273,273,1,273,images/flickr_dog_000861.jpg,images/flickr_dog_000913.jpg,Eddy,001,2021-08-04_10h29.54.279,Dog face experiment_fully sample_0-300,2021.1.4,Win32,143.4514417
,,,,,,p,0.7775,0,274,274,274,1,274,images/pixabay_dog_002268.jpg,images/pixabay_dog_000825.jpg,Eddy,001,2021-08-04_10h29.54.279,Dog face experiment_fully sample_0-300,2021.1.4,Win32,143.4514417
,,,,,,p,0.7855,0,275,275,275,1,275,images/flickr_dog_001079.jpg,images/pixabay_dog_000825.jpg,Eddy,001,2021-08-04_10h29.54.279,Dog face experiment_fully sample_0-300,2021.1.4,Win32,143.4514417
,,,,,,p,3.0984,0,276,276,276,1,276,images/pixabay_dog_002268.jpg,images/pixabay_dog_000744.jpg,Eddy,001,2021-08-04_10h29.54.279,Dog face experiment_fully sample_0-300,2021.1.4,Win32,143.4514417
,,,,,,p,0.7712,0,277,277,277,1,277,images/pixabay_dog_002596.jpg,images/pixabay_dog_003859.jpg,Eddy,001,2021-08-04_10h29.54.279,Dog face experiment_fully sample_0-300,2021.1.4,Win32,143.4514417
,,,,,,q,1.3621,0,278,278,278,1,278,images/pixabay_dog_002899.jpg,images/flickr_dog_000279.jpg,Eddy,001,2021-08-04_10h29.54.279,Dog face experiment_fully sample_0-300,2021.1.4,Win32,143.4514417
,,,,,,p,3.667,0,279,279,279,1,279,images/pixabay_dog_000744.jpg,images/pixabay_dog_002649.jpg,Eddy,001,2021-08-04_10h29.54.279,Dog face experiment_fully sample_0-300,2021.1.4,Win32,143.4514417
,,,,,,q,1.8837,0,280,280,280,1,280,images/pixabay_dog_002899.jpg,images/pixabay_dog_000914.jpg,Eddy,001,2021-08-04_10h29.54.279,Dog face experiment_fully sample_0-300,2021.1.4,Win32,143.4514417
,,,,,,p,0.7986,0,281,281,281,1,281,images/pixabay_dog_000744.jpg,images/flickr_dog_000861.jpg,Eddy,001,2021-08-04_10h29.54.279,Dog face experiment_fully sample_0-300,2021.1.4,Win32,143.4514417
,,,,,,p,1.487,0,282,282,282,1,282,images/pixabay_dog_002861.jpg,images/pixabay_dog_001255.jpg,Eddy,001,2021-08-04_10h29.54.279,Dog face experiment_fully sample_0-300,2021.1.4,Win32,143.4514417
,,,,,,p,1.2264,0,283,283,283,1,283,images/pixabay_dog_002989.jpg,images/pixabay_dog_000525.jpg,Eddy,001,2021-08-04_10h29.54.279,Dog face experiment_fully sample_0-300,2021.1.4,Win32,143.4514417
,,,,,,q,2.2352,0,284,284,284,1,284,images/pixabay_dog_000805.jpg,images/pixabay_dog_003829.jpg,Eddy,001,2021-08-04_10h29.54.279,Dog face experiment_fully sample_0-300,2021.1.4,Win32,143.4514417
,,,,,,p,1.4352,0,285,285,285,1,285,images/pixabay_dog_000914.jpg,images/pixabay_dog_003859.jpg,Eddy,001,2021-08-04_10h29.54.279,Dog face experiment_fully sample_0-300,2021.1.4,Win32,143.4514417
,,,,,,p,0.9278,0,286,286,286,1,286,images/pixabay_dog_002744.jpg,images/pixabay_dog_001843.jpg,Eddy,001,2021-08-04_10h29.54.279,Dog face experiment_fully sample_0-300,2021.1.4,Win32,143.4514417
,,,,,,p,1.2308,0,287,287,287,1,287,images/pixabay_dog_001255.jpg,images/pixabay_dog_000805.jpg,Eddy,001,2021-08-04_10h29.54.279,Dog face experiment_fully sample_0-300,2021.1.4,Win32,143.4514417
,,,,,,p,1.2514,0,288,288,288,1,288,images/pixabay_dog_003238.jpg,images/pixabay_dog_003357.jpg,Eddy,001,2021-08-04_10h29.54.279,Dog face experiment_fully sample_0-300,2021.1.4,Win32,143.4514417
,,,,,,p,2.8353,0,289,289,289,1,289,images/pixabay_dog_000042.jpg,images/pixabay_dog_002649.jpg,Eddy,001,2021-08-04_10h29.54.279,Dog face experiment_fully sample_0-300,2021.1.4,Win32,143.4514417
,,,,,,q,1.3963,0,290,290,290,1,290,images/flickr_dog_000861.jpg,images/pixabay_dog_001843.jpg,Eddy,001,2021-08-04_10h29.54.279,Dog face experiment_fully sample_0-300,2021.1.4,Win32,143.4514417
,,,,,,q,2.4667,0,291,291,291,1,291,images/pixabay_dog_002360.jpg,images/pixabay_dog_000914.jpg,Eddy,001,2021-08-04_10h29.54.279,Dog face experiment_fully sample_0-300,2021.1.4,Win32,143.4514417
,,,,,,q,1.8992,0,292,292,292,1,292,images/flickr_dog_000566.jpg,images/pixabay_dog_002744.jpg,Eddy,001,2021-08-04_10h29.54.279,Dog face experiment_fully sample_0-300,2021.1.4,Win32,143.4514417
,,,,,,p,1.2081,0,293,293,293,1,293,images/pixabay_dog_001712.jpg,images/pixabay_dog_003859.jpg,Eddy,001,2021-08-04_10h29.54.279,Dog face experiment_fully sample_0-300,2021.1.4,Win32,143.4514417
,,,,,,p,0.7856,0,294,294,294,1,294,images/pixabay_dog_001712.jpg,images/pixabay_dog_003310.jpg,Eddy,001,2021-08-04_10h29.54.279,Dog face experiment_fully sample_0-300,2021.1.4,Win32,143.4514417
,,,,,,q,1.5302,0,295,295,295,1,295,images/pixabay_dog_003305.jpg,images/pixabay_dog_000525.jpg,Eddy,001,2021-08-04_10h29.54.279,Dog face experiment_fully sample_0-300,2021.1.4,Win32,143.4514417
,,,,,,p,1.0768,0,296,296,296,1,296,images/flickr_dog_000194.jpg,images/flickr_dog_001107.jpg,Eddy,001,2021-08-04_10h29.54.279,Dog face experiment_fully sample_0-300,2021.1.4,Win32,143.4514417
,,,,,,q,1.7042,0,297,297,297,1,297,images/pixabay_dog_001150.jpg,images/flickr_dog_000083.jpg,Eddy,001,2021-08-04_10h29.54.279,Dog face experiment_fully sample_0-300,2021.1.4,Win32,143.4514417
,,,,,,q,2.2777,0,298,298,298,1,298,images/flickr_dog_000201.jpg,images/pixabay_dog_001960.jpg,Eddy,001,2021-08-04_10h29.54.279,Dog face experiment_fully sample_0-300,2021.1.4,Win32,143.4514417
,,,,,,p,1.4328,0,299,299,299,1,299,images/pixabay_dog_003098.jpg,images/pixabay_dog_000744.jpg,Eddy,001,2021-08-04_10h29.54.279,Dog face experiment_fully sample_0-300,2021.1.4,Win32,143.4514417
