key_resp.keys,key_resp.rt,key_resp_2.keys,key_resp_2.rt,key_resp_3.keys,key_resp_3.rt,key_resp_4.keys,key_resp_4.rt,trials.thisRepN,trials.thisTrialN,trials.thisN,trials.thisIndex,trials.ran,trail_nums,img1,img2,participant,session,date,expName,psychopyVersion,OS,frameRate
space,1.1795,space,0.3268,space,0.3696,p,2.7497,0,0,0,0,1,0,images/pixabay_dog_002268.jpg,images/pixabay_dog_003859.jpg,Eddy,001,2021-08-04_10h46.39.465,Dog face experiment_fully sample_601-900,2021.1.4,Win32,144.1337561
,,,,,,p,2.8689,0,1,1,1,1,1,images/pixabay_dog_000744.jpg,images/pixabay_dog_003859.jpg,Eddy,001,2021-08-04_10h46.39.465,Dog face experiment_fully sample_601-900,2021.1.4,Win32,144.1337561
,,,,,,p,1.5781,0,2,2,2,1,2,images/pixabay_dog_000744.jpg,images/pixabay_dog_002282.jpg,Eddy,001,2021-08-04_10h46.39.465,Dog face experiment_fully sample_601-900,2021.1.4,Win32,144.1337561
,,,,,,p,1.3674,0,3,3,3,1,3,images/pixabay_dog_000853.jpg,images/pixabay_dog_002793.jpg,Eddy,001,2021-08-04_10h46.39.465,Dog face experiment_fully sample_601-900,2021.1.4,Win32,144.1337561
,,,,,,p,0.86,0,4,4,4,1,4,images/pixabay_dog_002793.jpg,images/flickr_dog_000194.jpg,Eddy,001,2021-08-04_10h46.39.465,Dog face experiment_fully sample_601-900,2021.1.4,Win32,144.1337561
,,,,,,p,0.942,0,5,5,5,1,5,images/pixabay_dog_001712.jpg,images/pixabay_dog_002596.jpg,Eddy,001,2021-08-04_10h46.39.465,Dog face experiment_fully sample_601-900,2021.1.4,Win32,144.1337561
,,,,,,q,1.7362,0,6,6,6,1,6,images/pixabay_dog_002861.jpg,images/pixabay_dog_001465.jpg,Eddy,001,2021-08-04_10h46.39.465,Dog face experiment_fully sample_601-900,2021.1.4,Win32,144.1337561
,,,,,,p,0.8027,0,7,7,7,1,7,images/pixabay_dog_000042.jpg,images/flickr_dog_000266.jpg,Eddy,001,2021-08-04_10h46.39.465,Dog face experiment_fully sample_601-900,2021.1.4,Win32,144.1337561
,,,,,,q,2.4633,0,8,8,8,1,8,images/pixabay_dog_003238.jpg,images/pixabay_dog_001960.jpg,Eddy,001,2021-08-04_10h46.39.465,Dog face experiment_fully sample_601-900,2021.1.4,Win32,144.1337561
,,,,,,p,0.6794,0,9,9,9,1,9,images/pixabay_dog_001255.jpg,images/flickr_dog_000194.jpg,Eddy,001,2021-08-04_10h46.39.465,Dog face experiment_fully sample_601-900,2021.1.4,Win32,144.1337561
,,,,,,p,1.4354,0,10,10,10,1,10,images/pixabay_dog_003971.jpg,images/pixabay_dog_000805.jpg,Eddy,001,2021-08-04_10h46.39.465,Dog face experiment_fully sample_601-900,2021.1.4,Win32,144.1337561
,,,,,,p,0.7831,0,11,11,11,1,11,images/flickr_dog_000019.jpg,images/pixabay_dog_003604.jpg,Eddy,001,2021-08-04_10h46.39.465,Dog face experiment_fully sample_601-900,2021.1.4,Win32,144.1337561
,,,,,,q,0.8899,0,12,12,12,1,12,images/flickr_dog_000201.jpg,images/pixabay_dog_002793.jpg,Eddy,001,2021-08-04_10h46.39.465,Dog face experiment_fully sample_601-900,2021.1.4,Win32,144.1337561
,,,,,,p,0.7756,0,13,13,13,1,13,images/pixabay_dog_002861.jpg,images/pixabay_dog_001843.jpg,Eddy,001,2021-08-04_10h46.39.465,Dog face experiment_fully sample_601-900,2021.1.4,Win32,144.1337561
,,,,,,p,0.8189,0,14,14,14,1,14,images/pixabay_dog_003238.jpg,images/flickr_dog_000194.jpg,Eddy,001,2021-08-04_10h46.39.465,Dog face experiment_fully sample_601-900,2021.1.4,Win32,144.1337561
,,,,,,p,0.5777,0,15,15,15,1,15,images/pixabay_dog_003829.jpg,images/flickr_dog_000194.jpg,Eddy,001,2021-08-04_10h46.39.465,Dog face experiment_fully sample_601-900,2021.1.4,Win32,144.1337561
,,,,,,p,0.8063,0,16,16,16,1,16,images/flickr_dog_000566.jpg,images/pixabay_dog_003604.jpg,Eddy,001,2021-08-04_10h46.39.465,Dog face experiment_fully sample_601-900,2021.1.4,Win32,144.1337561
,,,,,,q,1.4858,0,17,17,17,1,17,images/pixabay_dog_003310.jpg,images/pixabay_dog_003859.jpg,Eddy,001,2021-08-04_10h46.39.465,Dog face experiment_fully sample_601-900,2021.1.4,Win32,144.1337561
,,,,,,p,0.5727,0,18,18,18,1,18,images/pixabay_dog_000805.jpg,images/pixabay_dog_003604.jpg,Eddy,001,2021-08-04_10h46.39.465,Dog face experiment_fully sample_601-900,2021.1.4,Win32,144.1337561
,,,,,,p,0.6539,0,19,19,19,1,19,images/flickr_dog_000261.jpg,images/pixabay_dog_003604.jpg,Eddy,001,2021-08-04_10h46.39.465,Dog face experiment_fully sample_601-900,2021.1.4,Win32,144.1337561
,,,,,,p,0.8138,0,20,20,20,1,20,images/pixabay_dog_000914.jpg,images/pixabay_dog_000825.jpg,Eddy,001,2021-08-04_10h46.39.465,Dog face experiment_fully sample_601-900,2021.1.4,Win32,144.1337561
,,,,,,p,0.6473,0,21,21,21,1,21,images/flickr_dog_000279.jpg,images/pixabay_dog_003604.jpg,Eddy,001,2021-08-04_10h46.39.465,Dog face experiment_fully sample_601-900,2021.1.4,Win32,144.1337561
,,,,,,p,1.82,0,22,22,22,1,22,images/pixabay_dog_003238.jpg,images/pixabay_dog_002360.jpg,Eddy,001,2021-08-04_10h46.39.465,Dog face experiment_fully sample_601-900,2021.1.4,Win32,144.1337561
,,,,,,q,0.7879,0,23,23,23,1,23,images/pixabay_dog_003604.jpg,images/pixabay_dog_000853.jpg,Eddy,001,2021-08-04_10h46.39.465,Dog face experiment_fully sample_601-900,2021.1.4,Win32,144.1337561
,,,,,,p,2.077,0,24,24,24,1,24,images/flickr_dog_001079.jpg,images/pixabay_dog_002649.jpg,Eddy,001,2021-08-04_10h46.39.465,Dog face experiment_fully sample_601-900,2021.1.4,Win32,144.1337561
,,,,,,q,1.7202,0,25,25,25,1,25,images/flickr_dog_000566.jpg,images/pixabay_dog_000932.jpg,Eddy,001,2021-08-04_10h46.39.465,Dog face experiment_fully sample_601-900,2021.1.4,Win32,144.1337561
,,,,,,q,1.1651,0,26,26,26,1,26,images/pixabay_dog_000042.jpg,images/pixabay_dog_001255.jpg,Eddy,001,2021-08-04_10h46.39.465,Dog face experiment_fully sample_601-900,2021.1.4,Win32,144.1337561
,,,,,,q,0.7668,0,27,27,27,1,27,images/flickr_dog_000266.jpg,images/pixabay_dog_003829.jpg,Eddy,001,2021-08-04_10h46.39.465,Dog face experiment_fully sample_601-900,2021.1.4,Win32,144.1337561
,,,,,,q,0.8423,0,28,28,28,1,28,images/pixabay_dog_003305.jpg,images/flickr_dog_000232.jpg,Eddy,001,2021-08-04_10h46.39.465,Dog face experiment_fully sample_601-900,2021.1.4,Win32,144.1337561
,,,,,,p,0.8298,0,29,29,29,1,29,images/pixabay_dog_003829.jpg,images/pixabay_dog_000825.jpg,Eddy,001,2021-08-04_10h46.39.465,Dog face experiment_fully sample_601-900,2021.1.4,Win32,144.1337561
,,,,,,q,1.0279,0,30,30,30,1,30,images/flickr_dog_000083.jpg,images/flickr_dog_000913.jpg,Eddy,001,2021-08-04_10h46.39.465,Dog face experiment_fully sample_601-900,2021.1.4,Win32,144.1337561
,,,,,,q,1.6048,0,31,31,31,1,31,images/flickr_dog_001079.jpg,images/pixabay_dog_001255.jpg,Eddy,001,2021-08-04_10h46.39.465,Dog face experiment_fully sample_601-900,2021.1.4,Win32,144.1337561
,,,,,,p,1.0506,0,32,32,32,1,32,images/pixabay_dog_003238.jpg,images/pixabay_dog_002744.jpg,Eddy,001,2021-08-04_10h46.39.465,Dog face experiment_fully sample_601-900,2021.1.4,Win32,144.1337561
,,,,,,q,1.3541,0,33,33,33,1,33,images/pixabay_dog_000042.jpg,images/pixabay_dog_000952.jpg,Eddy,001,2021-08-04_10h46.39.465,Dog face experiment_fully sample_601-900,2021.1.4,Win32,144.1337561
,,,,,,q,1.3404,0,34,34,34,1,34,images/pixabay_dog_003238.jpg,images/pixabay_dog_001843.jpg,Eddy,001,2021-08-04_10h46.39.465,Dog face experiment_fully sample_601-900,2021.1.4,Win32,144.1337561
,,,,,,q,1.0087,0,35,35,35,1,35,images/flickr_dog_000232.jpg,images/pixabay_dog_003727.jpg,Eddy,001,2021-08-04_10h46.39.465,Dog face experiment_fully sample_601-900,2021.1.4,Win32,144.1337561
,,,,,,q,2.172,0,36,36,36,1,36,images/pixabay_dog_000744.jpg,images/flickr_dog_000279.jpg,Eddy,001,2021-08-04_10h46.39.465,Dog face experiment_fully sample_601-900,2021.1.4,Win32,144.1337561
,,,,,,q,1.807,0,37,37,37,1,37,images/flickr_dog_000019.jpg,images/pixabay_dog_001712.jpg,Eddy,001,2021-08-04_10h46.39.465,Dog face experiment_fully sample_601-900,2021.1.4,Win32,144.1337561
,,,,,,p,0.6691,0,38,38,38,1,38,images/pixabay_dog_003098.jpg,images/flickr_dog_000266.jpg,Eddy,001,2021-08-04_10h46.39.465,Dog face experiment_fully sample_601-900,2021.1.4,Win32,144.1337561
,,,,,,q,1.3067,0,39,39,39,1,39,images/pixabay_dog_001960.jpg,images/pixabay_dog_002989.jpg,Eddy,001,2021-08-04_10h46.39.465,Dog face experiment_fully sample_601-900,2021.1.4,Win32,144.1337561
,,,,,,q,0.6876,0,40,40,40,1,40,images/pixabay_dog_003604.jpg,images/pixabay_dog_003310.jpg,Eddy,001,2021-08-04_10h46.39.465,Dog face experiment_fully sample_601-900,2021.1.4,Win32,144.1337561
,,,,,,q,1.1683,0,41,41,41,1,41,images/pixabay_dog_001150.jpg,images/pixabay_dog_000744.jpg,Eddy,001,2021-08-04_10h46.39.465,Dog face experiment_fully sample_601-900,2021.1.4,Win32,144.1337561
,,,,,,p,0.6658,0,42,42,42,1,42,images/pixabay_dog_000744.jpg,images/pixabay_dog_001524.jpg,Eddy,001,2021-08-04_10h46.39.465,Dog face experiment_fully sample_601-900,2021.1.4,Win32,144.1337561
,,,,,,q,0.8976,0,43,43,43,1,43,images/flickr_dog_000932.jpg,images/pixabay_dog_001960.jpg,Eddy,001,2021-08-04_10h46.39.465,Dog face experiment_fully sample_601-900,2021.1.4,Win32,144.1337561
,,,,,,q,0.892,0,44,44,44,1,44,images/pixabay_dog_001150.jpg,images/flickr_dog_000232.jpg,Eddy,001,2021-08-04_10h46.39.465,Dog face experiment_fully sample_601-900,2021.1.4,Win32,144.1337561
,,,,,,p,2.2307,0,45,45,45,1,45,images/pixabay_dog_001255.jpg,images/pixabay_dog_001960.jpg,Eddy,001,2021-08-04_10h46.39.465,Dog face experiment_fully sample_601-900,2021.1.4,Win32,144.1337561
,,,,,,p,1.277,0,46,46,46,1,46,images/pixabay_dog_002649.jpg,images/pixabay_dog_003357.jpg,Eddy,001,2021-08-04_10h46.39.465,Dog face experiment_fully sample_601-900,2021.1.4,Win32,144.1337561
,,,,,,q,0.8139,0,47,47,47,1,47,images/pixabay_dog_002360.jpg,images/pixabay_dog_002989.jpg,Eddy,001,2021-08-04_10h46.39.465,Dog face experiment_fully sample_601-900,2021.1.4,Win32,144.1337561
,,,,,,p,0.7918,0,48,48,48,1,48,images/pixabay_dog_002861.jpg,images/pixabay_dog_003604.jpg,Eddy,001,2021-08-04_10h46.39.465,Dog face experiment_fully sample_601-900,2021.1.4,Win32,144.1337561
,,,,,,p,0.9666,0,49,49,49,1,49,images/pixabay_dog_003305.jpg,images/pixabay_dog_003310.jpg,Eddy,001,2021-08-04_10h46.39.465,Dog face experiment_fully sample_601-900,2021.1.4,Win32,144.1337561
,,,,,,q,1.3969,0,50,50,50,1,50,images/flickr_dog_000083.jpg,images/pixabay_dog_000805.jpg,Eddy,001,2021-08-04_10h46.39.465,Dog face experiment_fully sample_601-900,2021.1.4,Win32,144.1337561
,,,,,,p,1.9716,0,51,51,51,1,51,images/pixabay_dog_002989.jpg,images/flickr_dog_000913.jpg,Eddy,001,2021-08-04_10h46.39.465,Dog face experiment_fully sample_601-900,2021.1.4,Win32,144.1337561
,,,,,,p,1.0104,0,52,52,52,1,52,images/flickr_dog_000194.jpg,images/pixabay_dog_003859.jpg,Eddy,001,2021-08-04_10h46.39.465,Dog face experiment_fully sample_601-900,2021.1.4,Win32,144.1337561
,,,,,,p,0.8538,0,53,53,53,1,53,images/flickr_dog_000261.jpg,images/flickr_dog_000279.jpg,Eddy,001,2021-08-04_10h46.39.465,Dog face experiment_fully sample_601-900,2021.1.4,Win32,144.1337561
,,,,,,p,0.9586,0,54,54,54,1,54,images/flickr_dog_001079.jpg,images/pixabay_dog_003305.jpg,Eddy,001,2021-08-04_10h46.39.465,Dog face experiment_fully sample_601-900,2021.1.4,Win32,144.1337561
,,,,,,q,1.7393,0,55,55,55,1,55,images/pixabay_dog_002268.jpg,images/pixabay_dog_002989.jpg,Eddy,001,2021-08-04_10h46.39.465,Dog face experiment_fully sample_601-900,2021.1.4,Win32,144.1337561
,,,,,,p,0.9329,0,56,56,56,1,56,images/flickr_dog_000266.jpg,images/flickr_dog_001107.jpg,Eddy,001,2021-08-04_10h46.39.465,Dog face experiment_fully sample_601-900,2021.1.4,Win32,144.1337561
,,,,,,p,0.8778,0,57,57,57,1,57,images/pixabay_dog_003971.jpg,images/flickr_dog_000194.jpg,Eddy,001,2021-08-04_10h46.39.465,Dog face experiment_fully sample_601-900,2021.1.4,Win32,144.1337561
,,,,,,q,0.917,0,58,58,58,1,58,images/pixabay_dog_002744.jpg,images/pixabay_dog_003829.jpg,Eddy,001,2021-08-04_10h46.39.465,Dog face experiment_fully sample_601-900,2021.1.4,Win32,144.1337561
,,,,,,p,0.8121,0,59,59,59,1,59,images/pixabay_dog_000952.jpg,images/pixabay_dog_000825.jpg,Eddy,001,2021-08-04_10h46.39.465,Dog face experiment_fully sample_601-900,2021.1.4,Win32,144.1337561
,,,,,,q,1.2086,0,60,60,60,1,60,images/pixabay_dog_001712.jpg,images/pixabay_dog_000853.jpg,Eddy,001,2021-08-04_10h46.39.465,Dog face experiment_fully sample_601-900,2021.1.4,Win32,144.1337561
,,,,,,p,1.9721,0,61,61,61,1,61,images/pixabay_dog_000744.jpg,images/pixabay_dog_002360.jpg,Eddy,001,2021-08-04_10h46.39.465,Dog face experiment_fully sample_601-900,2021.1.4,Win32,144.1337561
,,,,,,q,1.8198,0,62,62,62,1,62,images/pixabay_dog_001712.jpg,images/pixabay_dog_000952.jpg,Eddy,001,2021-08-04_10h46.39.465,Dog face experiment_fully sample_601-900,2021.1.4,Win32,144.1337561
,,,,,,p,0.98,0,63,63,63,1,63,images/flickr_dog_001079.jpg,images/pixabay_dog_002596.jpg,Eddy,001,2021-08-04_10h46.39.465,Dog face experiment_fully sample_601-900,2021.1.4,Win32,144.1337561
,,,,,,p,0.9949,0,64,64,64,1,64,images/flickr_dog_000261.jpg,images/flickr_dog_000266.jpg,Eddy,001,2021-08-04_10h46.39.465,Dog face experiment_fully sample_601-900,2021.1.4,Win32,144.1337561
,,,,,,q,1.1968,0,65,65,65,1,65,images/flickr_dog_000201.jpg,images/pixabay_dog_003859.jpg,Eddy,001,2021-08-04_10h46.39.465,Dog face experiment_fully sample_601-900,2021.1.4,Win32,144.1337561
,,,,,,p,1.0522,0,66,66,66,1,66,images/flickr_dog_000566.jpg,images/pixabay_dog_002282.jpg,Eddy,001,2021-08-04_10h46.39.465,Dog face experiment_fully sample_601-900,2021.1.4,Win32,144.1337561
,,,,,,p,1.2097,0,67,67,67,1,67,images/pixabay_dog_003971.jpg,images/flickr_dog_000279.jpg,Eddy,001,2021-08-04_10h46.39.465,Dog face experiment_fully sample_601-900,2021.1.4,Win32,144.1337561
,,,,,,p,1.6983,0,68,68,68,1,68,images/flickr_dog_000279.jpg,images/pixabay_dog_000805.jpg,Eddy,001,2021-08-04_10h46.39.465,Dog face experiment_fully sample_601-900,2021.1.4,Win32,144.1337561
,,,,,,q,1.0522,0,69,69,69,1,69,images/pixabay_dog_000042.jpg,images/flickr_dog_000261.jpg,Eddy,001,2021-08-04_10h46.39.465,Dog face experiment_fully sample_601-900,2021.1.4,Win32,144.1337561
,,,,,,p,1.3203,0,70,70,70,1,70,images/pixabay_dog_000744.jpg,images/flickr_dog_000232.jpg,Eddy,001,2021-08-04_10h46.39.465,Dog face experiment_fully sample_601-900,2021.1.4,Win32,144.1337561
,,,,,,q,1.4256,0,71,71,71,1,71,images/pixabay_dog_002268.jpg,images/flickr_dog_000279.jpg,Eddy,001,2021-08-04_10h46.39.465,Dog face experiment_fully sample_601-900,2021.1.4,Win32,144.1337561
,,,,,,p,1.2043,0,72,72,72,1,72,images/pixabay_dog_001150.jpg,images/pixabay_dog_000825.jpg,Eddy,001,2021-08-04_10h46.39.465,Dog face experiment_fully sample_601-900,2021.1.4,Win32,144.1337561
,,,,,,p,0.7246,0,73,73,73,1,73,images/pixabay_dog_000805.jpg,images/flickr_dog_000266.jpg,Eddy,001,2021-08-04_10h46.39.465,Dog face experiment_fully sample_601-900,2021.1.4,Win32,144.1337561
,,,,,,q,0.8132,0,74,74,74,1,74,images/pixabay_dog_002282.jpg,images/pixabay_dog_000853.jpg,Eddy,001,2021-08-04_10h46.39.465,Dog face experiment_fully sample_601-900,2021.1.4,Win32,144.1337561
,,,,,,p,1.0443,0,75,75,75,1,75,images/pixabay_dog_001465.jpg,images/pixabay_dog_003859.jpg,Eddy,001,2021-08-04_10h46.39.465,Dog face experiment_fully sample_601-900,2021.1.4,Win32,144.1337561
,,,,,,p,0.8219,0,76,76,76,1,76,images/pixabay_dog_003305.jpg,images/flickr_dog_000201.jpg,Eddy,001,2021-08-04_10h46.39.465,Dog face experiment_fully sample_601-900,2021.1.4,Win32,144.1337561
,,,,,,q,1.369,0,77,77,77,1,77,images/pixabay_dog_001150.jpg,images/flickr_dog_000913.jpg,Eddy,001,2021-08-04_10h46.39.465,Dog face experiment_fully sample_601-900,2021.1.4,Win32,144.1337561
,,,,,,p,1.7457,0,78,78,78,1,78,images/pixabay_dog_003727.jpg,images/pixabay_dog_001960.jpg,Eddy,001,2021-08-04_10h46.39.465,Dog face experiment_fully sample_601-900,2021.1.4,Win32,144.1337561
,,,,,,p,0.8951,0,79,79,79,1,79,images/pixabay_dog_003829.jpg,images/pixabay_dog_002596.jpg,Eddy,001,2021-08-04_10h46.39.465,Dog face experiment_fully sample_601-900,2021.1.4,Win32,144.1337561
,,,,,,p,0.8759,0,80,80,80,1,80,images/flickr_dog_000279.jpg,images/pixabay_dog_001524.jpg,Eddy,001,2021-08-04_10h46.39.465,Dog face experiment_fully sample_601-900,2021.1.4,Win32,144.1337561
,,,,,,p,0.8551,0,81,81,81,1,81,images/flickr_dog_000566.jpg,images/flickr_dog_000861.jpg,Eddy,001,2021-08-04_10h46.39.465,Dog face experiment_fully sample_601-900,2021.1.4,Win32,144.1337561
,,,,,,q,1.0347,0,82,82,82,1,82,images/pixabay_dog_003305.jpg,images/pixabay_dog_000932.jpg,Eddy,001,2021-08-04_10h46.39.465,Dog face experiment_fully sample_601-900,2021.1.4,Win32,144.1337561
,,,,,,p,1.0079,0,83,83,83,1,83,images/flickr_dog_000932.jpg,images/pixabay_dog_000825.jpg,Eddy,001,2021-08-04_10h46.39.465,Dog face experiment_fully sample_601-900,2021.1.4,Win32,144.1337561
,,,,,,p,0.9029,0,84,84,84,1,84,images/pixabay_dog_003971.jpg,images/pixabay_dog_002282.jpg,Eddy,001,2021-08-04_10h46.39.465,Dog face experiment_fully sample_601-900,2021.1.4,Win32,144.1337561
,,,,,,q,1.2763,0,85,85,85,1,85,images/pixabay_dog_002268.jpg,images/pixabay_dog_002596.jpg,Eddy,001,2021-08-04_10h46.39.465,Dog face experiment_fully sample_601-900,2021.1.4,Win32,144.1337561
,,,,,,p,1.9061,0,86,86,86,1,86,images/pixabay_dog_001255.jpg,images/pixabay_dog_003859.jpg,Eddy,001,2021-08-04_10h46.39.465,Dog face experiment_fully sample_601-900,2021.1.4,Win32,144.1337561
,,,,,,p,1.2781,0,87,87,87,1,87,images/flickr_dog_000261.jpg,images/pixabay_dog_002596.jpg,Eddy,001,2021-08-04_10h46.39.465,Dog face experiment_fully sample_601-900,2021.1.4,Win32,144.1337561
,,,,,,p,1.0255,0,88,88,88,1,88,images/flickr_dog_000566.jpg,images/pixabay_dog_000914.jpg,Eddy,001,2021-08-04_10h46.39.465,Dog face experiment_fully sample_601-900,2021.1.4,Win32,144.1337561
,,,,,,q,0.7584,0,89,89,89,1,89,images/pixabay_dog_003604.jpg,images/flickr_dog_001107.jpg,Eddy,001,2021-08-04_10h46.39.465,Dog face experiment_fully sample_601-900,2021.1.4,Win32,144.1337561
,,,,,,q,1.9805,0,90,90,90,1,90,images/pixabay_dog_001712.jpg,images/pixabay_dog_003727.jpg,Eddy,001,2021-08-04_10h46.39.465,Dog face experiment_fully sample_601-900,2021.1.4,Win32,144.1337561
,,,,,,p,1.2906,0,91,91,91,1,91,images/pixabay_dog_000914.jpg,images/pixabay_dog_001843.jpg,Eddy,001,2021-08-04_10h46.39.465,Dog face experiment_fully sample_601-900,2021.1.4,Win32,144.1337561
,,,,,,p,0.8895,0,92,92,92,1,92,images/pixabay_dog_000952.jpg,images/pixabay_dog_001524.jpg,Eddy,001,2021-08-04_10h46.39.465,Dog face experiment_fully sample_601-900,2021.1.4,Win32,144.1337561
,,,,,,q,1.1957,0,93,93,93,1,93,images/pixabay_dog_003829.jpg,images/pixabay_dog_002989.jpg,Eddy,001,2021-08-04_10h46.39.465,Dog face experiment_fully sample_601-900,2021.1.4,Win32,144.1337561
,,,,,,p,0.9799,0,94,94,94,1,94,images/flickr_dog_000566.jpg,images/flickr_dog_000232.jpg,Eddy,001,2021-08-04_10h46.39.465,Dog face experiment_fully sample_601-900,2021.1.4,Win32,144.1337561
,,,,,,q,1.6968,0,95,95,95,1,95,images/pixabay_dog_000914.jpg,images/pixabay_dog_003357.jpg,Eddy,001,2021-08-04_10h46.39.465,Dog face experiment_fully sample_601-900,2021.1.4,Win32,144.1337561
,,,,,,p,1.4372,0,96,96,96,1,96,images/pixabay_dog_002793.jpg,images/pixabay_dog_002989.jpg,Eddy,001,2021-08-04_10h46.39.465,Dog face experiment_fully sample_601-900,2021.1.4,Win32,144.1337561
,,,,,,q,1.3138,0,97,97,97,1,97,images/pixabay_dog_000744.jpg,images/flickr_dog_000019.jpg,Eddy,001,2021-08-04_10h46.39.465,Dog face experiment_fully sample_601-900,2021.1.4,Win32,144.1337561
,,,,,,q,0.7319,0,98,98,98,1,98,images/pixabay_dog_003310.jpg,images/pixabay_dog_001465.jpg,Eddy,001,2021-08-04_10h46.39.465,Dog face experiment_fully sample_601-900,2021.1.4,Win32,144.1337561
,,,,,,p,0.6745,0,99,99,99,1,99,images/pixabay_dog_000914.jpg,images/flickr_dog_001107.jpg,Eddy,001,2021-08-04_10h46.39.465,Dog face experiment_fully sample_601-900,2021.1.4,Win32,144.1337561
,,,,,,q,1.6684,0,100,100,100,1,100,images/pixabay_dog_002360.jpg,images/pixabay_dog_001465.jpg,Eddy,001,2021-08-04_10h46.39.465,Dog face experiment_fully sample_601-900,2021.1.4,Win32,144.1337561
,,,,,,q,2.431,0,101,101,101,1,101,images/flickr_dog_000932.jpg,images/flickr_dog_000913.jpg,Eddy,001,2021-08-04_10h46.39.465,Dog face experiment_fully sample_601-900,2021.1.4,Win32,144.1337561
,,,,,,q,2.4242,0,102,102,102,1,102,images/pixabay_dog_000825.jpg,images/pixabay_dog_001843.jpg,Eddy,001,2021-08-04_10h46.39.465,Dog face experiment_fully sample_601-900,2021.1.4,Win32,144.1337561
,,,,,,q,0.7867,0,103,103,103,1,103,images/pixabay_dog_002649.jpg,images/pixabay_dog_002793.jpg,Eddy,001,2021-08-04_10h46.39.465,Dog face experiment_fully sample_601-900,2021.1.4,Win32,144.1337561
,,,,,,q,4.1388,0,104,104,104,1,104,images/pixabay_dog_003310.jpg,images/pixabay_dog_000952.jpg,Eddy,001,2021-08-04_10h46.39.465,Dog face experiment_fully sample_601-900,2021.1.4,Win32,144.1337561
,,,,,,p,1.4775,0,105,105,105,1,105,images/pixabay_dog_002899.jpg,images/flickr_dog_001107.jpg,Eddy,001,2021-08-04_10h46.39.465,Dog face experiment_fully sample_601-900,2021.1.4,Win32,144.1337561
,,,,,,q,1.8701,0,106,106,106,1,106,images/pixabay_dog_003305.jpg,images/flickr_dog_000279.jpg,Eddy,001,2021-08-04_10h46.39.465,Dog face experiment_fully sample_601-900,2021.1.4,Win32,144.1337561
,,,,,,p,1.2845,0,107,107,107,1,107,images/pixabay_dog_000744.jpg,images/flickr_dog_000932.jpg,Eddy,001,2021-08-04_10h46.39.465,Dog face experiment_fully sample_601-900,2021.1.4,Win32,144.1337561
,,,,,,p,1.5443,0,108,108,108,1,108,images/pixabay_dog_000853.jpg,images/pixabay_dog_000525.jpg,Eddy,001,2021-08-04_10h46.39.465,Dog face experiment_fully sample_601-900,2021.1.4,Win32,144.1337561
,,,,,,q,0.8187,0,109,109,109,1,109,images/pixabay_dog_002899.jpg,images/pixabay_dog_000853.jpg,Eddy,001,2021-08-04_10h46.39.465,Dog face experiment_fully sample_601-900,2021.1.4,Win32,144.1337561
,,,,,,q,1.1598,0,110,110,110,1,110,images/flickr_dog_000566.jpg,images/pixabay_dog_002861.jpg,Eddy,001,2021-08-04_10h46.39.465,Dog face experiment_fully sample_601-900,2021.1.4,Win32,144.1337561
,,,,,,q,0.9023,0,111,111,111,1,111,images/pixabay_dog_000914.jpg,images/pixabay_dog_000952.jpg,Eddy,001,2021-08-04_10h46.39.465,Dog face experiment_fully sample_601-900,2021.1.4,Win32,144.1337561
,,,,,,q,0.9754,0,112,112,112,1,112,images/flickr_dog_000932.jpg,images/pixabay_dog_001712.jpg,Eddy,001,2021-08-04_10h46.39.465,Dog face experiment_fully sample_601-900,2021.1.4,Win32,144.1337561
,,,,,,q,1.1815,0,113,113,113,1,113,images/pixabay_dog_002744.jpg,images/flickr_dog_000279.jpg,Eddy,001,2021-08-04_10h46.39.465,Dog face experiment_fully sample_601-900,2021.1.4,Win32,144.1337561
,,,,,,q,1.0205,0,114,114,114,1,114,images/pixabay_dog_001255.jpg,images/pixabay_dog_001465.jpg,Eddy,001,2021-08-04_10h46.39.465,Dog face experiment_fully sample_601-900,2021.1.4,Win32,144.1337561
,,,,,,p,0.8773,0,115,115,115,1,115,images/pixabay_dog_003829.jpg,images/pixabay_dog_001843.jpg,Eddy,001,2021-08-04_10h46.39.465,Dog face experiment_fully sample_601-900,2021.1.4,Win32,144.1337561
,,,,,,p,0.9604,0,116,116,116,1,116,images/pixabay_dog_000932.jpg,images/flickr_dog_001107.jpg,Eddy,001,2021-08-04_10h46.39.465,Dog face experiment_fully sample_601-900,2021.1.4,Win32,144.1337561
,,,,,,p,0.954,0,117,117,117,1,117,images/pixabay_dog_003971.jpg,images/pixabay_dog_003357.jpg,Eddy,001,2021-08-04_10h46.39.465,Dog face experiment_fully sample_601-900,2021.1.4,Win32,144.1337561
,,,,,,p,1.334,0,118,118,118,1,118,images/pixabay_dog_003238.jpg,images/pixabay_dog_003829.jpg,Eddy,001,2021-08-04_10h46.39.465,Dog face experiment_fully sample_601-900,2021.1.4,Win32,144.1337561
,,,,,,p,0.8336,0,119,119,119,1,119,images/pixabay_dog_001960.jpg,images/flickr_dog_000194.jpg,Eddy,001,2021-08-04_10h46.39.465,Dog face experiment_fully sample_601-900,2021.1.4,Win32,144.1337561
,,,,,,q,1.0335,0,120,120,120,1,120,images/pixabay_dog_002899.jpg,images/pixabay_dog_000952.jpg,Eddy,001,2021-08-04_10h46.39.465,Dog face experiment_fully sample_601-900,2021.1.4,Win32,144.1337561
,,,,,,p,0.9146,0,121,121,121,1,121,images/flickr_dog_000566.jpg,images/flickr_dog_000932.jpg,Eddy,001,2021-08-04_10h46.39.465,Dog face experiment_fully sample_601-900,2021.1.4,Win32,144.1337561
,,,,,,q,1.0192,0,122,122,122,1,122,images/pixabay_dog_003310.jpg,images/pixabay_dog_001843.jpg,Eddy,001,2021-08-04_10h46.39.465,Dog face experiment_fully sample_601-900,2021.1.4,Win32,144.1337561
,,,,,,p,0.8681,0,123,123,123,1,123,images/pixabay_dog_001960.jpg,images/flickr_dog_001107.jpg,Eddy,001,2021-08-04_10h46.39.465,Dog face experiment_fully sample_601-900,2021.1.4,Win32,144.1337561
,,,,,,p,0.938,0,124,124,124,1,124,images/pixabay_dog_001465.jpg,images/pixabay_dog_001843.jpg,Eddy,001,2021-08-04_10h46.39.465,Dog face experiment_fully sample_601-900,2021.1.4,Win32,144.1337561
,,,,,,p,2.5141,0,125,125,125,1,125,images/flickr_dog_000232.jpg,images/pixabay_dog_002596.jpg,Eddy,001,2021-08-04_10h46.39.465,Dog face experiment_fully sample_601-900,2021.1.4,Win32,144.1337561
,,,,,,q,1.1281,0,126,126,126,1,126,images/pixabay_dog_003238.jpg,images/flickr_dog_000261.jpg,Eddy,001,2021-08-04_10h46.39.465,Dog face experiment_fully sample_601-900,2021.1.4,Win32,144.1337561
,,,,,,p,0.6813,0,127,127,127,1,127,images/pixabay_dog_002899.jpg,images/flickr_dog_000266.jpg,Eddy,001,2021-08-04_10h46.39.465,Dog face experiment_fully sample_601-900,2021.1.4,Win32,144.1337561
,,,,,,q,1.3755,0,128,128,128,1,128,images/pixabay_dog_002649.jpg,images/pixabay_dog_001960.jpg,Eddy,001,2021-08-04_10h46.39.465,Dog face experiment_fully sample_601-900,2021.1.4,Win32,144.1337561
,,,,,,p,0.8275,0,129,129,129,1,129,images/pixabay_dog_002744.jpg,images/pixabay_dog_003357.jpg,Eddy,001,2021-08-04_10h46.39.465,Dog face experiment_fully sample_601-900,2021.1.4,Win32,144.1337561
,,,,,,p,0.9242,0,130,130,130,1,130,images/pixabay_dog_003098.jpg,images/pixabay_dog_000805.jpg,Eddy,001,2021-08-04_10h46.39.465,Dog face experiment_fully sample_601-900,2021.1.4,Win32,144.1337561
,,,,,,q,1.0346,0,131,131,131,1,131,images/flickr_dog_000861.jpg,images/pixabay_dog_000952.jpg,Eddy,001,2021-08-04_10h46.39.465,Dog face experiment_fully sample_601-900,2021.1.4,Win32,144.1337561
,,,,,,p,0.8475,0,132,132,132,1,132,images/flickr_dog_000566.jpg,images/flickr_dog_000266.jpg,Eddy,001,2021-08-04_10h46.39.465,Dog face experiment_fully sample_601-900,2021.1.4,Win32,144.1337561
,,,,,,q,2.868,0,133,133,133,1,133,images/flickr_dog_000279.jpg,images/pixabay_dog_001960.jpg,Eddy,001,2021-08-04_10h46.39.465,Dog face experiment_fully sample_601-900,2021.1.4,Win32,144.1337561
,,,,,,p,1.4582,0,134,134,134,1,134,images/pixabay_dog_002649.jpg,images/pixabay_dog_002596.jpg,Eddy,001,2021-08-04_10h46.39.465,Dog face experiment_fully sample_601-900,2021.1.4,Win32,144.1337561
,,,,,,q,1.0349,0,135,135,135,1,135,images/pixabay_dog_002899.jpg,images/pixabay_dog_002744.jpg,Eddy,001,2021-08-04_10h46.39.465,Dog face experiment_fully sample_601-900,2021.1.4,Win32,144.1337561
,,,,,,p,9.0648,0,136,136,136,1,136,images/flickr_dog_000566.jpg,images/flickr_dog_000019.jpg,Eddy,001,2021-08-04_10h46.39.465,Dog face experiment_fully sample_601-900,2021.1.4,Win32,144.1337561
,,,,,,q,0.9242,0,137,137,137,1,137,images/flickr_dog_000932.jpg,images/pixabay_dog_003829.jpg,Eddy,001,2021-08-04_10h46.39.465,Dog face experiment_fully sample_601-900,2021.1.4,Win32,144.1337561
,,,,,,q,0.7718,0,138,138,138,1,138,images/flickr_dog_000266.jpg,images/pixabay_dog_001960.jpg,Eddy,001,2021-08-04_10h46.39.465,Dog face experiment_fully sample_601-900,2021.1.4,Win32,144.1337561
,,,,,,q,0.9455,0,139,139,139,1,139,images/flickr_dog_000932.jpg,images/pixabay_dog_000805.jpg,Eddy,001,2021-08-04_10h46.39.465,Dog face experiment_fully sample_601-900,2021.1.4,Win32,144.1337561
,,,,,,q,0.6603,0,140,140,140,1,140,images/flickr_dog_000861.jpg,images/pixabay_dog_000825.jpg,Eddy,001,2021-08-04_10h46.39.465,Dog face experiment_fully sample_601-900,2021.1.4,Win32,144.1337561
,,,,,,q,1.5451,0,141,141,141,1,141,images/pixabay_dog_000952.jpg,images/pixabay_dog_000525.jpg,Eddy,001,2021-08-04_10h46.39.465,Dog face experiment_fully sample_601-900,2021.1.4,Win32,144.1337561
,,,,,,p,1.0599,0,142,142,142,1,142,images/flickr_dog_000019.jpg,images/pixabay_dog_000825.jpg,Eddy,001,2021-08-04_10h46.39.465,Dog face experiment_fully sample_601-900,2021.1.4,Win32,144.1337561
,,,,,,p,0.7524,0,143,143,143,1,143,images/flickr_dog_000279.jpg,images/flickr_dog_000266.jpg,Eddy,001,2021-08-04_10h46.39.465,Dog face experiment_fully sample_601-900,2021.1.4,Win32,144.1337561
,,,,,,p,0.6764,0,144,144,144,1,144,images/flickr_dog_001079.jpg,images/pixabay_dog_002899.jpg,Eddy,001,2021-08-04_10h46.39.465,Dog face experiment_fully sample_601-900,2021.1.4,Win32,144.1337561
,,,,,,q,0.8957,0,145,145,145,1,145,images/pixabay_dog_002861.jpg,images/pixabay_dog_000853.jpg,Eddy,001,2021-08-04_10h46.39.465,Dog face experiment_fully sample_601-900,2021.1.4,Win32,144.1337561
,,,,,,p,0.7634,0,146,146,146,1,146,images/flickr_dog_000566.jpg,images/pixabay_dog_002899.jpg,Eddy,001,2021-08-04_10h46.39.465,Dog face experiment_fully sample_601-900,2021.1.4,Win32,144.1337561
,,,,,,q,0.9977,0,147,147,147,1,147,images/pixabay_dog_003305.jpg,images/pixabay_dog_002268.jpg,Eddy,001,2021-08-04_10h46.39.465,Dog face experiment_fully sample_601-900,2021.1.4,Win32,144.1337561
,,,,,,p,0.9346,0,148,148,148,1,148,images/pixabay_dog_000744.jpg,images/pixabay_dog_003357.jpg,Eddy,001,2021-08-04_10h46.39.465,Dog face experiment_fully sample_601-900,2021.1.4,Win32,144.1337561
,,,,,,p,0.9599,0,149,149,149,1,149,images/pixabay_dog_002744.jpg,images/pixabay_dog_002596.jpg,Eddy,001,2021-08-04_10h46.39.465,Dog face experiment_fully sample_601-900,2021.1.4,Win32,144.1337561
,,,,,,q,0.9008,0,150,150,150,1,150,images/pixabay_dog_003310.jpg,images/pixabay_dog_002596.jpg,Eddy,001,2021-08-04_10h46.39.465,Dog face experiment_fully sample_601-900,2021.1.4,Win32,144.1337561
,,,,,,p,0.8286,0,151,151,151,1,151,images/flickr_dog_000566.jpg,images/flickr_dog_001107.jpg,Eddy,001,2021-08-04_10h46.39.465,Dog face experiment_fully sample_601-900,2021.1.4,Win32,144.1337561
,,,,,,q,1.1406,0,152,152,152,1,152,images/pixabay_dog_003305.jpg,images/pixabay_dog_002899.jpg,Eddy,001,2021-08-04_10h46.39.465,Dog face experiment_fully sample_601-900,2021.1.4,Win32,144.1337561
,,,,,,p,1.6355,0,153,153,153,1,153,images/pixabay_dog_001255.jpg,images/pixabay_dog_000525.jpg,Eddy,001,2021-08-04_10h46.39.465,Dog face experiment_fully sample_601-900,2021.1.4,Win32,144.1337561
,,,,,,q,0.9246,0,154,154,154,1,154,images/pixabay_dog_001150.jpg,images/pixabay_dog_003238.jpg,Eddy,001,2021-08-04_10h46.39.465,Dog face experiment_fully sample_601-900,2021.1.4,Win32,144.1337561
,,,,,,p,0.747,0,155,155,155,1,155,images/pixabay_dog_003238.jpg,images/flickr_dog_000266.jpg,Eddy,001,2021-08-04_10h46.39.465,Dog face experiment_fully sample_601-900,2021.1.4,Win32,144.1337561
,,,,,,q,1.279,0,156,156,156,1,156,images/flickr_dog_000232.jpg,images/pixabay_dog_000525.jpg,Eddy,001,2021-08-04_10h46.39.465,Dog face experiment_fully sample_601-900,2021.1.4,Win32,144.1337561
,,,,,,p,0.9489,0,157,157,157,1,157,images/flickr_dog_000261.jpg,images/pixabay_dog_002793.jpg,Eddy,001,2021-08-04_10h46.39.465,Dog face experiment_fully sample_601-900,2021.1.4,Win32,144.1337561
,,,,,,p,0.7497,0,158,158,158,1,158,images/pixabay_dog_002649.jpg,images/flickr_dog_000266.jpg,Eddy,001,2021-08-04_10h46.39.465,Dog face experiment_fully sample_601-900,2021.1.4,Win32,144.1337561
,,,,,,q,0.9936,0,159,159,159,1,159,images/pixabay_dog_003727.jpg,images/pixabay_dog_003829.jpg,Eddy,001,2021-08-04_10h46.39.465,Dog face experiment_fully sample_601-900,2021.1.4,Win32,144.1337561
,,,,,,p,0.8482,0,160,160,160,1,160,images/pixabay_dog_000042.jpg,images/pixabay_dog_001524.jpg,Eddy,001,2021-08-04_10h46.39.465,Dog face experiment_fully sample_601-900,2021.1.4,Win32,144.1337561
,,,,,,q,2.4201,0,161,161,161,1,161,images/pixabay_dog_000914.jpg,images/flickr_dog_000083.jpg,Eddy,001,2021-08-04_10h46.39.465,Dog face experiment_fully sample_601-900,2021.1.4,Win32,144.1337561
,,,,,,q,2.9121,0,162,162,162,1,162,images/pixabay_dog_003238.jpg,images/pixabay_dog_002989.jpg,Eddy,001,2021-08-04_10h46.39.465,Dog face experiment_fully sample_601-900,2021.1.4,Win32,144.1337561
,,,,,,q,1.2995,0,163,163,163,1,163,images/pixabay_dog_002793.jpg,images/pixabay_dog_000932.jpg,Eddy,001,2021-08-04_10h46.39.465,Dog face experiment_fully sample_601-900,2021.1.4,Win32,144.1337561
,,,,,,q,0.7157,0,164,164,164,1,164,images/flickr_dog_000861.jpg,images/flickr_dog_000201.jpg,Eddy,001,2021-08-04_10h46.39.465,Dog face experiment_fully sample_601-900,2021.1.4,Win32,144.1337561
,,,,,,p,0.9461,0,165,165,165,1,165,images/pixabay_dog_003098.jpg,images/pixabay_dog_002282.jpg,Eddy,001,2021-08-04_10h46.39.465,Dog face experiment_fully sample_601-900,2021.1.4,Win32,144.1337561
,,,,,,q,0.7856,0,166,166,166,1,166,images/flickr_dog_000861.jpg,images/pixabay_dog_001712.jpg,Eddy,001,2021-08-04_10h46.39.465,Dog face experiment_fully sample_601-900,2021.1.4,Win32,144.1337561
,,,,,,p,0.6838,0,167,167,167,1,167,images/pixabay_dog_003829.jpg,images/pixabay_dog_001524.jpg,Eddy,001,2021-08-04_10h46.39.465,Dog face experiment_fully sample_601-900,2021.1.4,Win32,144.1337561
,,,,,,q,1.1185,0,168,168,168,1,168,images/flickr_dog_000279.jpg,images/pixabay_dog_000525.jpg,Eddy,001,2021-08-04_10h46.39.465,Dog face experiment_fully sample_601-900,2021.1.4,Win32,144.1337561
,,,,,,q,0.6829,0,169,169,169,1,169,images/flickr_dog_000861.jpg,images/pixabay_dog_001524.jpg,Eddy,001,2021-08-04_10h46.39.465,Dog face experiment_fully sample_601-900,2021.1.4,Win32,144.1337561
,,,,,,q,0.9396,0,170,170,170,1,170,images/pixabay_dog_000914.jpg,images/pixabay_dog_001524.jpg,Eddy,001,2021-08-04_10h46.39.465,Dog face experiment_fully sample_601-900,2021.1.4,Win32,144.1337561
,,,,,,p,0.9953,0,171,171,171,1,171,images/pixabay_dog_001465.jpg,images/pixabay_dog_002596.jpg,Eddy,001,2021-08-04_10h46.39.465,Dog face experiment_fully sample_601-900,2021.1.4,Win32,144.1337561
,,,,,,q,1.0052,0,172,172,172,1,172,images/pixabay_dog_000042.jpg,images/pixabay_dog_000805.jpg,Eddy,001,2021-08-04_10h46.39.465,Dog face experiment_fully sample_601-900,2021.1.4,Win32,144.1337561
,,,,,,p,1.8083,0,173,173,173,1,173,images/pixabay_dog_002861.jpg,images/flickr_dog_000279.jpg,Eddy,001,2021-08-04_10h46.39.465,Dog face experiment_fully sample_601-900,2021.1.4,Win32,144.1337561
,,,,,,p,0.8119,0,174,174,174,1,174,images/pixabay_dog_003727.jpg,images/flickr_dog_001107.jpg,Eddy,001,2021-08-04_10h46.39.465,Dog face experiment_fully sample_601-900,2021.1.4,Win32,144.1337561
,,,,,,q,1.1286,0,175,175,175,1,175,images/pixabay_dog_000914.jpg,images/flickr_dog_000913.jpg,Eddy,001,2021-08-04_10h46.39.465,Dog face experiment_fully sample_601-900,2021.1.4,Win32,144.1337561
,,,,,,p,1.8707,0,176,176,176,1,176,images/pixabay_dog_002268.jpg,images/flickr_dog_000232.jpg,Eddy,001,2021-08-04_10h46.39.465,Dog face experiment_fully sample_601-900,2021.1.4,Win32,144.1337561
,,,,,,p,0.8987,0,177,177,177,1,177,images/flickr_dog_000279.jpg,images/pixabay_dog_002282.jpg,Eddy,001,2021-08-04_10h46.39.465,Dog face experiment_fully sample_601-900,2021.1.4,Win32,144.1337561
,,,,,,p,1.4316,0,178,178,178,1,178,images/flickr_dog_001079.jpg,images/pixabay_dog_000952.jpg,Eddy,001,2021-08-04_10h46.39.465,Dog face experiment_fully sample_601-900,2021.1.4,Win32,144.1337561
,,,,,,p,1.9137,0,179,179,179,1,179,images/pixabay_dog_002744.jpg,images/flickr_dog_000232.jpg,Eddy,001,2021-08-04_10h46.39.465,Dog face experiment_fully sample_601-900,2021.1.4,Win32,144.1337561
,,,,,,q,1.8618,0,180,180,180,1,180,images/flickr_dog_000261.jpg,images/pixabay_dog_000853.jpg,Eddy,001,2021-08-04_10h46.39.465,Dog face experiment_fully sample_601-900,2021.1.4,Win32,144.1337561
,,,,,,p,0.9308,0,181,181,181,1,181,images/pixabay_dog_002861.jpg,images/pixabay_dog_000525.jpg,Eddy,001,2021-08-04_10h46.39.465,Dog face experiment_fully sample_601-900,2021.1.4,Win32,144.1337561
,,,,,,p,0.7261,0,182,182,182,1,182,images/pixabay_dog_002861.jpg,images/pixabay_dog_003859.jpg,Eddy,001,2021-08-04_10h46.39.465,Dog face experiment_fully sample_601-900,2021.1.4,Win32,144.1337561
,,,,,,p,0.6304,0,183,183,183,1,183,images/pixabay_dog_002861.jpg,images/pixabay_dog_003829.jpg,Eddy,001,2021-08-04_10h46.39.465,Dog face experiment_fully sample_601-900,2021.1.4,Win32,144.1337561
,,,,,,q,0.7025,0,184,184,184,1,184,images/pixabay_dog_001150.jpg,images/flickr_dog_000261.jpg,Eddy,001,2021-08-04_10h46.39.465,Dog face experiment_fully sample_601-900,2021.1.4,Win32,144.1337561
,,,,,,q,1.2318,0,185,185,185,1,185,images/pixabay_dog_000914.jpg,images/flickr_dog_000279.jpg,Eddy,001,2021-08-04_10h46.39.465,Dog face experiment_fully sample_601-900,2021.1.4,Win32,144.1337561
,,,,,,p,1.669,0,186,186,186,1,186,images/pixabay_dog_000744.jpg,images/pixabay_dog_000805.jpg,Eddy,001,2021-08-04_10h46.39.465,Dog face experiment_fully sample_601-900,2021.1.4,Win32,144.1337561
,,,,,,q,1.3566,0,187,187,187,1,187,images/pixabay_dog_003238.jpg,images/pixabay_dog_000932.jpg,Eddy,001,2021-08-04_10h46.39.465,Dog face experiment_fully sample_601-900,2021.1.4,Win32,144.1337561
,,,,,,p,0.7506,0,188,188,188,1,188,images/flickr_dog_000232.jpg,images/flickr_dog_000266.jpg,Eddy,001,2021-08-04_10h46.39.465,Dog face experiment_fully sample_601-900,2021.1.4,Win32,144.1337561
,,,,,,q,0.8792,0,189,189,189,1,189,images/pixabay_dog_000744.jpg,images/pixabay_dog_000952.jpg,Eddy,001,2021-08-04_10h46.39.465,Dog face experiment_fully sample_601-900,2021.1.4,Win32,144.1337561
,,,,,,p,2.6822,0,190,190,190,1,190,images/pixabay_dog_002744.jpg,images/pixabay_dog_001960.jpg,Eddy,001,2021-08-04_10h46.39.465,Dog face experiment_fully sample_601-900,2021.1.4,Win32,144.1337561
,,,,,,q,1.2517,0,191,191,191,1,191,images/pixabay_dog_003238.jpg,images/pixabay_dog_002793.jpg,Eddy,001,2021-08-04_10h46.39.465,Dog face experiment_fully sample_601-900,2021.1.4,Win32,144.1337561
,,,,,,p,0.9567,0,192,192,192,1,192,images/flickr_dog_000261.jpg,images/pixabay_dog_003310.jpg,Eddy,001,2021-08-04_10h46.39.465,Dog face experiment_fully sample_601-900,2021.1.4,Win32,144.1337561
,,,,,,p,0.9191,0,193,193,193,1,193,images/flickr_dog_000913.jpg,images/pixabay_dog_003357.jpg,Eddy,001,2021-08-04_10h46.39.465,Dog face experiment_fully sample_601-900,2021.1.4,Win32,144.1337561
,,,,,,p,1.0097,0,194,194,194,1,194,images/flickr_dog_000566.jpg,images/pixabay_dog_002360.jpg,Eddy,001,2021-08-04_10h46.39.465,Dog face experiment_fully sample_601-900,2021.1.4,Win32,144.1337561
,,,,,,p,0.7885,0,195,195,195,1,195,images/flickr_dog_000566.jpg,images/pixabay_dog_001150.jpg,Eddy,001,2021-08-04_10h46.39.465,Dog face experiment_fully sample_601-900,2021.1.4,Win32,144.1337561
,,,,,,p,0.5989,0,196,196,196,1,196,images/flickr_dog_000566.jpg,images/pixabay_dog_003859.jpg,Eddy,001,2021-08-04_10h46.39.465,Dog face experiment_fully sample_601-900,2021.1.4,Win32,144.1337561
,,,,,,q,2.2855,0,197,197,197,1,197,images/pixabay_dog_001255.jpg,images/pixabay_dog_002793.jpg,Eddy,001,2021-08-04_10h46.39.465,Dog face experiment_fully sample_601-900,2021.1.4,Win32,144.1337561
,,,,,,p,0.8264,0,198,198,198,1,198,images/flickr_dog_000279.jpg,images/flickr_dog_000201.jpg,Eddy,001,2021-08-04_10h46.39.465,Dog face experiment_fully sample_601-900,2021.1.4,Win32,144.1337561
,,,,,,q,1.426,0,199,199,199,1,199,images/pixabay_dog_001712.jpg,images/pixabay_dog_003829.jpg,Eddy,001,2021-08-04_10h46.39.465,Dog face experiment_fully sample_601-900,2021.1.4,Win32,144.1337561
,,,,,,p,1.181,0,200,200,200,1,200,images/pixabay_dog_003971.jpg,images/pixabay_dog_002649.jpg,Eddy,001,2021-08-04_10h46.39.465,Dog face experiment_fully sample_601-900,2021.1.4,Win32,144.1337561
,,,,,,p,1.0779,0,201,201,201,1,201,images/flickr_dog_000232.jpg,images/pixabay_dog_000825.jpg,Eddy,001,2021-08-04_10h46.39.465,Dog face experiment_fully sample_601-900,2021.1.4,Win32,144.1337561
,,,,,,p,1.5172,0,202,202,202,1,202,images/pixabay_dog_003098.jpg,images/pixabay_dog_000952.jpg,Eddy,001,2021-08-04_10h46.39.465,Dog face experiment_fully sample_601-900,2021.1.4,Win32,144.1337561
,,,,,,q,1.4222,0,203,203,203,1,203,images/pixabay_dog_000932.jpg,images/pixabay_dog_000525.jpg,Eddy,001,2021-08-04_10h46.39.465,Dog face experiment_fully sample_601-900,2021.1.4,Win32,144.1337561
,,,,,,q,1.3037,0,204,204,204,1,204,images/pixabay_dog_000744.jpg,images/flickr_dog_000261.jpg,Eddy,001,2021-08-04_10h46.39.465,Dog face experiment_fully sample_601-900,2021.1.4,Win32,144.1337561
,,,,,,p,0.7761,0,205,205,205,1,205,images/flickr_dog_001079.jpg,images/flickr_dog_000266.jpg,Eddy,001,2021-08-04_10h46.39.465,Dog face experiment_fully sample_601-900,2021.1.4,Win32,144.1337561
,,,,,,p,0.9605,0,206,206,206,1,206,images/pixabay_dog_002360.jpg,images/flickr_dog_001107.jpg,Eddy,001,2021-08-04_10h46.39.465,Dog face experiment_fully sample_601-900,2021.1.4,Win32,144.1337561
,,,,,,p,1.1621,0,207,207,207,1,207,images/pixabay_dog_002744.jpg,images/flickr_dog_000266.jpg,Eddy,001,2021-08-04_10h46.39.465,Dog face experiment_fully sample_601-900,2021.1.4,Win32,144.1337561
,,,,,,p,1.8632,0,208,208,208,1,208,images/flickr_dog_000201.jpg,images/pixabay_dog_002649.jpg,Eddy,001,2021-08-04_10h46.39.465,Dog face experiment_fully sample_601-900,2021.1.4,Win32,144.1337561
,,,,,,q,0.8616,0,209,209,209,1,209,images/pixabay_dog_003829.jpg,images/flickr_dog_000913.jpg,Eddy,001,2021-08-04_10h46.39.465,Dog face experiment_fully sample_601-900,2021.1.4,Win32,144.1337561
,,,,,,p,0.7356,0,210,210,210,1,210,images/pixabay_dog_002649.jpg,images/pixabay_dog_001843.jpg,Eddy,001,2021-08-04_10h46.39.465,Dog face experiment_fully sample_601-900,2021.1.4,Win32,144.1337561
,,,,,,q,1.1514,0,211,211,211,1,211,images/pixabay_dog_000042.jpg,images/flickr_dog_000279.jpg,Eddy,001,2021-08-04_10h46.39.465,Dog face experiment_fully sample_601-900,2021.1.4,Win32,144.1337561
,,,,,,p,0.8346,0,212,212,212,1,212,images/pixabay_dog_003859.jpg,images/pixabay_dog_003357.jpg,Eddy,001,2021-08-04_10h46.39.465,Dog face experiment_fully sample_601-900,2021.1.4,Win32,144.1337561
,,,,,,p,0.8756,0,213,213,213,1,213,images/pixabay_dog_001150.jpg,images/pixabay_dog_002360.jpg,Eddy,001,2021-08-04_10h46.39.465,Dog face experiment_fully sample_601-900,2021.1.4,Win32,144.1337561
,,,,,,q,0.8603,0,214,214,214,1,214,images/flickr_dog_000201.jpg,images/flickr_dog_000083.jpg,Eddy,001,2021-08-04_10h46.39.465,Dog face experiment_fully sample_601-900,2021.1.4,Win32,144.1337561
,,,,,,p,0.938,0,215,215,215,1,215,images/pixabay_dog_001712.jpg,images/pixabay_dog_002282.jpg,Eddy,001,2021-08-04_10h46.39.465,Dog face experiment_fully sample_601-900,2021.1.4,Win32,144.1337561
,,,,,,q,0.8714,0,216,216,216,1,216,images/pixabay_dog_002268.jpg,images/pixabay_dog_002793.jpg,Eddy,001,2021-08-04_10h46.39.465,Dog face experiment_fully sample_601-900,2021.1.4,Win32,144.1337561
,,,,,,q,0.8263,0,217,217,217,1,217,images/pixabay_dog_003305.jpg,images/pixabay_dog_000805.jpg,Eddy,001,2021-08-04_10h46.39.465,Dog face experiment_fully sample_601-900,2021.1.4,Win32,144.1337561
,,,,,,q,0.8898,0,218,218,218,1,218,images/pixabay_dog_001150.jpg,images/pixabay_dog_002861.jpg,Eddy,001,2021-08-04_10h46.39.465,Dog face experiment_fully sample_601-900,2021.1.4,Win32,144.1337561
,,,,,,q,1.2462,0,219,219,219,1,219,images/pixabay_dog_003238.jpg,images/flickr_dog_000019.jpg,Eddy,001,2021-08-04_10h46.39.465,Dog face experiment_fully sample_601-900,2021.1.4,Win32,144.1337561
,,,,,,q,1.1325,0,220,220,220,1,220,images/pixabay_dog_000805.jpg,images/pixabay_dog_002989.jpg,Eddy,001,2021-08-04_10h46.39.465,Dog face experiment_fully sample_601-900,2021.1.4,Win32,144.1337561
,,,,,,q,1.1532,0,221,221,221,1,221,images/pixabay_dog_001150.jpg,images/pixabay_dog_002899.jpg,Eddy,001,2021-08-04_10h46.39.465,Dog face experiment_fully sample_601-900,2021.1.4,Win32,144.1337561
,,,,,,q,0.7022,0,222,222,222,1,222,images/pixabay_dog_001150.jpg,images/flickr_dog_001079.jpg,Eddy,001,2021-08-04_10h46.39.465,Dog face experiment_fully sample_601-900,2021.1.4,Win32,144.1337561
,,,,,,p,0.8902,0,223,223,223,1,223,images/pixabay_dog_002744.jpg,images/pixabay_dog_002861.jpg,Eddy,001,2021-08-04_10h46.39.465,Dog face experiment_fully sample_601-900,2021.1.4,Win32,144.1337561
,,,,,,p,0.7091,0,224,224,224,1,224,images/pixabay_dog_002793.jpg,images/pixabay_dog_000825.jpg,Eddy,001,2021-08-04_10h46.39.465,Dog face experiment_fully sample_601-900,2021.1.4,Win32,144.1337561
,,,,,,q,0.8427,0,225,225,225,1,225,images/flickr_dog_000861.jpg,images/pixabay_dog_002861.jpg,Eddy,001,2021-08-04_10h46.39.465,Dog face experiment_fully sample_601-900,2021.1.4,Win32,144.1337561
,,,,,,q,1.8124,0,226,226,226,1,226,images/pixabay_dog_000952.jpg,images/pixabay_dog_001465.jpg,Eddy,001,2021-08-04_10h46.39.465,Dog face experiment_fully sample_601-900,2021.1.4,Win32,144.1337561
,,,,,,p,1.2063,0,227,227,227,1,227,images/pixabay_dog_001960.jpg,images/pixabay_dog_002596.jpg,Eddy,001,2021-08-04_10h46.39.465,Dog face experiment_fully sample_601-900,2021.1.4,Win32,144.1337561
,,,,,,p,1.4891,0,228,228,228,1,228,images/pixabay_dog_000914.jpg,images/flickr_dog_000194.jpg,Eddy,001,2021-08-04_10h46.39.465,Dog face experiment_fully sample_601-900,2021.1.4,Win32,144.1337561
,,,,,,p,0.8133,0,229,229,229,1,229,images/pixabay_dog_000042.jpg,images/pixabay_dog_000825.jpg,Eddy,001,2021-08-04_10h46.39.465,Dog face experiment_fully sample_601-900,2021.1.4,Win32,144.1337561
,,,,,,q,0.8094,0,230,230,230,1,230,images/pixabay_dog_002861.jpg,images/pixabay_dog_003727.jpg,Eddy,001,2021-08-04_10h46.39.465,Dog face experiment_fully sample_601-900,2021.1.4,Win32,144.1337561
,,,,,,q,0.9346,0,231,231,231,1,231,images/pixabay_dog_000805.jpg,images/pixabay_dog_001465.jpg,Eddy,001,2021-08-04_10h46.39.465,Dog face experiment_fully sample_601-900,2021.1.4,Win32,144.1337561
,,,,,,q,1.2938,0,232,232,232,1,232,images/flickr_dog_000201.jpg,images/pixabay_dog_000932.jpg,Eddy,001,2021-08-04_10h46.39.465,Dog face experiment_fully sample_601-900,2021.1.4,Win32,144.1337561
,,,,,,q,0.7169,0,233,233,233,1,233,images/pixabay_dog_003305.jpg,images/pixabay_dog_002596.jpg,Eddy,001,2021-08-04_10h46.39.465,Dog face experiment_fully sample_601-900,2021.1.4,Win32,144.1337561
,,,,,,p,0.6841,0,234,234,234,1,234,images/pixabay_dog_000853.jpg,images/pixabay_dog_001524.jpg,Eddy,001,2021-08-04_10h46.39.465,Dog face experiment_fully sample_601-900,2021.1.4,Win32,144.1337561
,,,,,,q,1.3562,0,235,235,235,1,235,images/pixabay_dog_003310.jpg,images/pixabay_dog_000525.jpg,Eddy,001,2021-08-04_10h46.39.465,Dog face experiment_fully sample_601-900,2021.1.4,Win32,144.1337561
,,,,,,q,1.1562,0,236,236,236,1,236,images/pixabay_dog_002899.jpg,images/pixabay_dog_001465.jpg,Eddy,001,2021-08-04_10h46.39.465,Dog face experiment_fully sample_601-900,2021.1.4,Win32,144.1337561
,,,,,,p,0.7817,0,237,237,237,1,237,images/pixabay_dog_000525.jpg,images/flickr_dog_001107.jpg,Eddy,001,2021-08-04_10h46.39.465,Dog face experiment_fully sample_601-900,2021.1.4,Win32,144.1337561
,,,,,,p,0.5843,0,238,238,238,1,238,images/flickr_dog_000261.jpg,images/flickr_dog_001107.jpg,Eddy,001,2021-08-04_10h46.39.465,Dog face experiment_fully sample_601-900,2021.1.4,Win32,144.1337561
,,,,,,p,1.1763,0,239,239,239,1,239,images/pixabay_dog_002360.jpg,images/flickr_dog_000932.jpg,Eddy,001,2021-08-04_10h46.39.465,Dog face experiment_fully sample_601-900,2021.1.4,Win32,144.1337561
,,,,,,q,0.7364,0,240,240,240,1,240,images/pixabay_dog_002268.jpg,images/pixabay_dog_001465.jpg,Eddy,001,2021-08-04_10h46.39.465,Dog face experiment_fully sample_601-900,2021.1.4,Win32,144.1337561
,,,,,,p,1.4958,0,241,241,241,1,241,images/pixabay_dog_001465.jpg,images/pixabay_dog_000525.jpg,Eddy,001,2021-08-04_10h46.39.465,Dog face experiment_fully sample_601-900,2021.1.4,Win32,144.1337561
,,,,,,p,2.4939,0,242,242,242,1,242,images/pixabay_dog_003727.jpg,images/pixabay_dog_000952.jpg,Eddy,001,2021-08-04_10h46.39.465,Dog face experiment_fully sample_601-900,2021.1.4,Win32,144.1337561
,,,,,,p,0.7373,0,243,243,243,1,243,images/flickr_dog_000861.jpg,images/pixabay_dog_000914.jpg,Eddy,001,2021-08-04_10h46.39.465,Dog face experiment_fully sample_601-900,2021.1.4,Win32,144.1337561
,,,,,,p,1.3705,0,244,244,244,1,244,images/flickr_dog_000279.jpg,images/flickr_dog_000083.jpg,Eddy,001,2021-08-04_10h46.39.465,Dog face experiment_fully sample_601-900,2021.1.4,Win32,144.1337561
,,,,,,p,2.1109,0,245,245,245,1,245,images/pixabay_dog_002989.jpg,images/pixabay_dog_002596.jpg,Eddy,001,2021-08-04_10h46.39.465,Dog face experiment_fully sample_601-900,2021.1.4,Win32,144.1337561
,,,,,,p,0.8765,0,246,246,246,1,246,images/pixabay_dog_000914.jpg,images/flickr_dog_000266.jpg,Eddy,001,2021-08-04_10h46.39.465,Dog face experiment_fully sample_601-900,2021.1.4,Win32,144.1337561
,,,,,,q,1.3031,0,247,247,247,1,247,images/pixabay_dog_002861.jpg,images/pixabay_dog_002793.jpg,Eddy,001,2021-08-04_10h46.39.465,Dog face experiment_fully sample_601-900,2021.1.4,Win32,144.1337561
,,,,,,p,0.7854,0,248,248,248,1,248,images/pixabay_dog_002989.jpg,images/flickr_dog_001107.jpg,Eddy,001,2021-08-04_10h46.39.465,Dog face experiment_fully sample_601-900,2021.1.4,Win32,144.1337561
,,,,,,p,1.8959,0,249,249,249,1,249,images/flickr_dog_000019.jpg,images/pixabay_dog_001255.jpg,Eddy,001,2021-08-04_10h46.39.465,Dog face experiment_fully sample_601-900,2021.1.4,Win32,144.1337561
,,,,,,p,1.642,0,250,250,250,1,250,images/pixabay_dog_000744.jpg,images/pixabay_dog_003238.jpg,Eddy,001,2021-08-04_10h46.39.465,Dog face experiment_fully sample_601-900,2021.1.4,Win32,144.1337561
,,,,,,q,0.695,0,251,251,251,1,251,images/flickr_dog_000266.jpg,images/pixabay_dog_000932.jpg,Eddy,001,2021-08-04_10h46.39.465,Dog face experiment_fully sample_601-900,2021.1.4,Win32,144.1337561
,,,,,,p,0.6726,0,252,252,252,1,252,images/pixabay_dog_001465.jpg,images/flickr_dog_001107.jpg,Eddy,001,2021-08-04_10h46.39.465,Dog face experiment_fully sample_601-900,2021.1.4,Win32,144.1337561
,,,,,,q,1.1573,0,253,253,253,1,253,images/pixabay_dog_003971.jpg,images/pixabay_dog_002989.jpg,Eddy,001,2021-08-04_10h46.39.465,Dog face experiment_fully sample_601-900,2021.1.4,Win32,144.1337561
,,,,,,q,0.7795,0,254,254,254,1,254,images/pixabay_dog_001150.jpg,images/flickr_dog_000019.jpg,Eddy,001,2021-08-04_10h46.39.465,Dog face experiment_fully sample_601-900,2021.1.4,Win32,144.1337561
,,,,,,p,0.7237,0,255,255,255,1,255,images/flickr_dog_000279.jpg,images/flickr_dog_000194.jpg,Eddy,001,2021-08-04_10h46.39.465,Dog face experiment_fully sample_601-900,2021.1.4,Win32,144.1337561
,,,,,,p,1.043,0,256,256,256,1,256,images/pixabay_dog_002861.jpg,images/flickr_dog_000083.jpg,Eddy,001,2021-08-04_10h46.39.465,Dog face experiment_fully sample_601-900,2021.1.4,Win32,144.1337561
,,,,,,p,0.7649,0,257,257,257,1,257,images/flickr_dog_000861.jpg,images/flickr_dog_001107.jpg,Eddy,001,2021-08-04_10h46.39.465,Dog face experiment_fully sample_601-900,2021.1.4,Win32,144.1337561
,,,,,,q,1.307,0,258,258,258,1,258,images/pixabay_dog_000744.jpg,images/pixabay_dog_002861.jpg,Eddy,001,2021-08-04_10h46.39.465,Dog face experiment_fully sample_601-900,2021.1.4,Win32,144.1337561
,,,,,,p,0.9536,0,259,259,259,1,259,images/pixabay_dog_001712.jpg,images/pixabay_dog_000932.jpg,Eddy,001,2021-08-04_10h46.39.465,Dog face experiment_fully sample_601-900,2021.1.4,Win32,144.1337561
,,,,,,p,0.8073,0,260,260,260,1,260,images/flickr_dog_000019.jpg,images/pixabay_dog_001843.jpg,Eddy,001,2021-08-04_10h46.39.465,Dog face experiment_fully sample_601-900,2021.1.4,Win32,144.1337561
,,,,,,p,1.2504,0,261,261,261,1,261,images/pixabay_dog_002282.jpg,images/flickr_dog_000266.jpg,Eddy,001,2021-08-04_10h46.39.465,Dog face experiment_fully sample_601-900,2021.1.4,Win32,144.1337561
,,,,,,p,0.9694,0,262,262,262,1,262,images/pixabay_dog_000952.jpg,images/pixabay_dog_003859.jpg,Eddy,001,2021-08-04_10h46.39.465,Dog face experiment_fully sample_601-900,2021.1.4,Win32,144.1337561
,,,,,,p,0.8561,0,263,263,263,1,263,images/pixabay_dog_003971.jpg,images/flickr_dog_000201.jpg,Eddy,001,2021-08-04_10h46.39.465,Dog face experiment_fully sample_601-900,2021.1.4,Win32,144.1337561
,,,,,,q,1.1471,0,264,264,264,1,264,images/flickr_dog_000932.jpg,images/pixabay_dog_003859.jpg,Eddy,001,2021-08-04_10h46.39.465,Dog face experiment_fully sample_601-900,2021.1.4,Win32,144.1337561
,,,,,,p,1.1505,0,265,265,265,1,265,images/flickr_dog_000932.jpg,images/pixabay_dog_001843.jpg,Eddy,001,2021-08-04_10h46.39.465,Dog face experiment_fully sample_601-900,2021.1.4,Win32,144.1337561
,,,,,,p,0.7945,0,266,266,266,1,266,images/pixabay_dog_002861.jpg,images/pixabay_dog_001524.jpg,Eddy,001,2021-08-04_10h46.39.465,Dog face experiment_fully sample_601-900,2021.1.4,Win32,144.1337561
,,,,,,q,0.9118,0,267,267,267,1,267,images/pixabay_dog_003238.jpg,images/pixabay_dog_001465.jpg,Eddy,001,2021-08-04_10h46.39.465,Dog face experiment_fully sample_601-900,2021.1.4,Win32,144.1337561
,,,,,,p,0.9396,0,268,268,268,1,268,images/pixabay_dog_003604.jpg,images/pixabay_dog_000825.jpg,Eddy,001,2021-08-04_10h46.39.465,Dog face experiment_fully sample_601-900,2021.1.4,Win32,144.1337561
,,,,,,q,1.6051,0,269,269,269,1,269,images/pixabay_dog_003098.jpg,images/pixabay_dog_002793.jpg,Eddy,001,2021-08-04_10h46.39.465,Dog face experiment_fully sample_601-900,2021.1.4,Win32,144.1337561
,,,,,,q,0.8412,0,270,270,270,1,270,images/pixabay_dog_003305.jpg,images/pixabay_dog_002989.jpg,Eddy,001,2021-08-04_10h46.39.465,Dog face experiment_fully sample_601-900,2021.1.4,Win32,144.1337561
,,,,,,p,0.7159,0,271,271,271,1,271,images/flickr_dog_000566.jpg,images/pixabay_dog_003305.jpg,Eddy,001,2021-08-04_10h46.39.465,Dog face experiment_fully sample_601-900,2021.1.4,Win32,144.1337561
,,,,,,q,0.8647,0,272,272,272,1,272,images/pixabay_dog_002899.jpg,images/pixabay_dog_002793.jpg,Eddy,001,2021-08-04_10h46.39.465,Dog face experiment_fully sample_601-900,2021.1.4,Win32,144.1337561
,,,,,,q,1.4581,0,273,273,273,1,273,images/flickr_dog_000279.jpg,images/pixabay_dog_002793.jpg,Eddy,001,2021-08-04_10h46.39.465,Dog face experiment_fully sample_601-900,2021.1.4,Win32,144.1337561
,,,,,,p,1.0712,0,274,274,274,1,274,images/flickr_dog_000261.jpg,images/flickr_dog_000932.jpg,Eddy,001,2021-08-04_10h46.39.465,Dog face experiment_fully sample_601-900,2021.1.4,Win32,144.1337561
,,,,,,p,0.8566,0,275,275,275,1,275,images/flickr_dog_000019.jpg,images/flickr_dog_001107.jpg,Eddy,001,2021-08-04_10h46.39.465,Dog face experiment_fully sample_601-900,2021.1.4,Win32,144.1337561
,,,,,,q,1.3353,0,276,276,276,1,276,images/pixabay_dog_001712.jpg,images/pixabay_dog_000805.jpg,Eddy,001,2021-08-04_10h46.39.465,Dog face experiment_fully sample_601-900,2021.1.4,Win32,144.1337561
,,,,,,q,0.954,0,277,277,277,1,277,images/pixabay_dog_001150.jpg,images/pixabay_dog_003829.jpg,Eddy,001,2021-08-04_10h46.39.465,Dog face experiment_fully sample_601-900,2021.1.4,Win32,144.1337561
,,,,,,p,1.015,0,278,278,278,1,278,images/pixabay_dog_003971.jpg,images/pixabay_dog_002793.jpg,Eddy,001,2021-08-04_10h46.39.465,Dog face experiment_fully sample_601-900,2021.1.4,Win32,144.1337561
,,,,,,p,0.723,0,279,279,279,1,279,images/pixabay_dog_000825.jpg,images/pixabay_dog_001524.jpg,Eddy,001,2021-08-04_10h46.39.465,Dog face experiment_fully sample_601-900,2021.1.4,Win32,144.1337561
,,,,,,p,0.9533,0,280,280,280,1,280,images/pixabay_dog_001150.jpg,images/pixabay_dog_002282.jpg,Eddy,001,2021-08-04_10h46.39.465,Dog face experiment_fully sample_601-900,2021.1.4,Win32,144.1337561
,,,,,,p,0.7795,0,281,281,281,1,281,images/pixabay_dog_000042.jpg,images/pixabay_dog_002360.jpg,Eddy,001,2021-08-04_10h46.39.465,Dog face experiment_fully sample_601-900,2021.1.4,Win32,144.1337561
,,,,,,p,1.1632,0,282,282,282,1,282,images/pixabay_dog_002268.jpg,images/flickr_dog_000932.jpg,Eddy,001,2021-08-04_10h46.39.465,Dog face experiment_fully sample_601-900,2021.1.4,Win32,144.1337561
,,,,,,p,0.8287,0,283,283,283,1,283,images/pixabay_dog_000825.jpg,images/flickr_dog_000194.jpg,Eddy,001,2021-08-04_10h46.39.465,Dog face experiment_fully sample_601-900,2021.1.4,Win32,144.1337561
,,,,,,p,0.9516,0,284,284,284,1,284,images/pixabay_dog_000932.jpg,images/pixabay_dog_001843.jpg,Eddy,001,2021-08-04_10h46.39.465,Dog face experiment_fully sample_601-900,2021.1.4,Win32,144.1337561
,,,,,,q,1.088,0,285,285,285,1,285,images/pixabay_dog_001712.jpg,images/flickr_dog_000913.jpg,Eddy,001,2021-08-04_10h46.39.465,Dog face experiment_fully sample_601-900,2021.1.4,Win32,144.1337561
,,,,,,q,1.1568,0,286,286,286,1,286,images/pixabay_dog_003971.jpg,images/pixabay_dog_001465.jpg,Eddy,001,2021-08-04_10h46.39.465,Dog face experiment_fully sample_601-900,2021.1.4,Win32,144.1337561
,,,,,,p,1.0574,0,287,287,287,1,287,images/pixabay_dog_002744.jpg,images/pixabay_dog_002793.jpg,Eddy,001,2021-08-04_10h46.39.465,Dog face experiment_fully sample_601-900,2021.1.4,Win32,144.1337561
,,,,,,q,1.286,0,288,288,288,1,288,images/flickr_dog_000861.jpg,images/pixabay_dog_001465.jpg,Eddy,001,2021-08-04_10h46.39.465,Dog face experiment_fully sample_601-900,2021.1.4,Win32,144.1337561
,,,,,,q,1.1539,0,289,289,289,1,289,images/flickr_dog_001079.jpg,images/pixabay_dog_003727.jpg,Eddy,001,2021-08-04_10h46.39.465,Dog face experiment_fully sample_601-900,2021.1.4,Win32,144.1337561
,,,,,,p,1.1955,0,290,290,290,1,290,images/flickr_dog_000279.jpg,images/pixabay_dog_001843.jpg,Eddy,001,2021-08-04_10h46.39.465,Dog face experiment_fully sample_601-900,2021.1.4,Win32,144.1337561
,,,,,,p,1.2875,0,291,291,291,1,291,images/pixabay_dog_001150.jpg,images/flickr_dog_000194.jpg,Eddy,001,2021-08-04_10h46.39.465,Dog face experiment_fully sample_601-900,2021.1.4,Win32,144.1337561
,,,,,,p,0.745,0,292,292,292,1,292,images/pixabay_dog_000914.jpg,images/pixabay_dog_003604.jpg,Eddy,001,2021-08-04_10h46.39.465,Dog face experiment_fully sample_601-900,2021.1.4,Win32,144.1337561
,,,,,,q,1.001,0,293,293,293,1,293,images/pixabay_dog_002360.jpg,images/pixabay_dog_001960.jpg,Eddy,001,2021-08-04_10h46.39.465,Dog face experiment_fully sample_601-900,2021.1.4,Win32,144.1337561
,,,,,,q,0.9954,0,294,294,294,1,294,images/flickr_dog_000932.jpg,images/flickr_dog_000232.jpg,Eddy,001,2021-08-04_10h46.39.465,Dog face experiment_fully sample_601-900,2021.1.4,Win32,144.1337561
,,,,,,p,1.6832,0,295,295,295,1,295,images/pixabay_dog_000042.jpg,images/pixabay_dog_003357.jpg,Eddy,001,2021-08-04_10h46.39.465,Dog face experiment_fully sample_601-900,2021.1.4,Win32,144.1337561
,,,,,,p,0.919,0,296,296,296,1,296,images/flickr_dog_000566.jpg,images/flickr_dog_000194.jpg,Eddy,001,2021-08-04_10h46.39.465,Dog face experiment_fully sample_601-900,2021.1.4,Win32,144.1337561
,,,,,,q,3.3823,0,297,297,297,1,297,images/pixabay_dog_003971.jpg,images/flickr_dog_000232.jpg,Eddy,001,2021-08-04_10h46.39.465,Dog face experiment_fully sample_601-900,2021.1.4,Win32,144.1337561
,,,,,,q,1.3765,0,298,298,298,1,298,images/flickr_dog_000932.jpg,images/pixabay_dog_002596.jpg,Eddy,001,2021-08-04_10h46.39.465,Dog face experiment_fully sample_601-900,2021.1.4,Win32,144.1337561
,,,,,,p,1.7237,0,299,299,299,1,299,images/flickr_dog_000913.jpg,images/pixabay_dog_000525.jpg,Eddy,001,2021-08-04_10h46.39.465,Dog face experiment_fully sample_601-900,2021.1.4,Win32,144.1337561
