key_resp.keys,key_resp.rt,key_resp_2.keys,key_resp_2.rt,key_resp_3.keys,key_resp_3.rt,key_resp_4.keys,key_resp_4.rt,trials.thisRepN,trials.thisTrialN,trials.thisN,trials.thisIndex,trials.ran,trail_nums,img1,img2,participant,session,date,expName,psychopyVersion,OS,frameRate
space,0.8008,space,0.2701,space,0.3471,q,2.5739,0,0,0,0,1,0,images/pixabay_dog_002861.jpg,images/pixabay_dog_000932.jpg,Eddy,001,2021-08-04_10h38.57.423,Dog face experiment_fully sample_301-600,2021.1.4,Win32,143.5132032
,,,,,,q,0.872,0,1,1,1,1,1,images/pixabay_dog_003310.jpg,images/pixabay_dog_003829.jpg,Eddy,001,2021-08-04_10h38.57.423,Dog face experiment_fully sample_301-600,2021.1.4,Win32,143.5132032
,,,,,,q,0.9562,0,2,2,2,1,2,images/flickr_dog_000019.jpg,images/pixabay_dog_001465.jpg,Eddy,001,2021-08-04_10h38.57.423,Dog face experiment_fully sample_301-600,2021.1.4,Win32,143.5132032
,,,,,,p,0.8335,0,3,3,3,1,3,images/pixabay_dog_000042.jpg,images/pixabay_dog_002282.jpg,Eddy,001,2021-08-04_10h38.57.423,Dog face experiment_fully sample_301-600,2021.1.4,Win32,143.5132032
,,,,,,q,0.8938,0,4,4,4,1,4,images/flickr_dog_000019.jpg,images/pixabay_dog_001960.jpg,Eddy,001,2021-08-04_10h38.57.423,Dog face experiment_fully sample_301-600,2021.1.4,Win32,143.5132032
,,,,,,p,1.4833,0,5,5,5,1,5,images/flickr_dog_000932.jpg,images/flickr_dog_000201.jpg,Eddy,001,2021-08-04_10h38.57.423,Dog face experiment_fully sample_301-600,2021.1.4,Win32,143.5132032
,,,,,,p,0.7205,0,6,6,6,1,6,images/pixabay_dog_002744.jpg,images/pixabay_dog_003310.jpg,Eddy,001,2021-08-04_10h38.57.423,Dog face experiment_fully sample_301-600,2021.1.4,Win32,143.5132032
,,,,,,p,0.7951,0,7,7,7,1,7,images/pixabay_dog_000744.jpg,images/flickr_dog_000194.jpg,Eddy,001,2021-08-04_10h38.57.423,Dog face experiment_fully sample_301-600,2021.1.4,Win32,143.5132032
,,,,,,q,1.0614,0,8,8,8,1,8,images/pixabay_dog_001150.jpg,images/flickr_dog_000279.jpg,Eddy,001,2021-08-04_10h38.57.423,Dog face experiment_fully sample_301-600,2021.1.4,Win32,143.5132032
,,,,,,q,1.0656,0,9,9,9,1,9,images/pixabay_dog_002649.jpg,images/pixabay_dog_000932.jpg,Eddy,001,2021-08-04_10h38.57.423,Dog face experiment_fully sample_301-600,2021.1.4,Win32,143.5132032
,,,,,,q,1.2983,0,10,10,10,1,10,images/pixabay_dog_003098.jpg,images/pixabay_dog_003727.jpg,Eddy,001,2021-08-04_10h38.57.423,Dog face experiment_fully sample_301-600,2021.1.4,Win32,143.5132032
,,,,,,q,1.3043,0,11,11,11,1,11,images/flickr_dog_000861.jpg,images/flickr_dog_000279.jpg,Eddy,001,2021-08-04_10h38.57.423,Dog face experiment_fully sample_301-600,2021.1.4,Win32,143.5132032
,,,,,,q,2.1866,0,12,12,12,1,12,images/pixabay_dog_001255.jpg,images/pixabay_dog_000932.jpg,Eddy,001,2021-08-04_10h38.57.423,Dog face experiment_fully sample_301-600,2021.1.4,Win32,143.5132032
,,,,,,q,1.5907,0,13,13,13,1,13,images/pixabay_dog_003829.jpg,images/pixabay_dog_000525.jpg,Eddy,001,2021-08-04_10h38.57.423,Dog face experiment_fully sample_301-600,2021.1.4,Win32,143.5132032
,,,,,,p,1.2781,0,14,14,14,1,14,images/pixabay_dog_002649.jpg,images/pixabay_dog_003310.jpg,Eddy,001,2021-08-04_10h38.57.423,Dog face experiment_fully sample_301-600,2021.1.4,Win32,143.5132032
,,,,,,q,1.844,0,15,15,15,1,15,images/flickr_dog_000261.jpg,images/pixabay_dog_002744.jpg,Eddy,001,2021-08-04_10h38.57.423,Dog face experiment_fully sample_301-600,2021.1.4,Win32,143.5132032
,,,,,,p,0.8542,0,16,16,16,1,16,images/pixabay_dog_003727.jpg,images/pixabay_dog_003310.jpg,Eddy,001,2021-08-04_10h38.57.423,Dog face experiment_fully sample_301-600,2021.1.4,Win32,143.5132032
,,,,,,q,2.8616,0,17,17,17,1,17,images/pixabay_dog_001960.jpg,images/pixabay_dog_000932.jpg,Eddy,001,2021-08-04_10h38.57.423,Dog face experiment_fully sample_301-600,2021.1.4,Win32,143.5132032
,,,,,,q,1.328,0,18,18,18,1,18,images/pixabay_dog_002596.jpg,images/flickr_dog_000913.jpg,Eddy,001,2021-08-04_10h38.57.423,Dog face experiment_fully sample_301-600,2021.1.4,Win32,143.5132032
,,,,,,p,1.3677,0,19,19,19,1,19,images/pixabay_dog_002744.jpg,images/pixabay_dog_002282.jpg,Eddy,001,2021-08-04_10h38.57.423,Dog face experiment_fully sample_301-600,2021.1.4,Win32,143.5132032
,,,,,,q,0.8753,0,20,20,20,1,20,images/flickr_dog_000279.jpg,images/pixabay_dog_000853.jpg,Eddy,001,2021-08-04_10h38.57.423,Dog face experiment_fully sample_301-600,2021.1.4,Win32,143.5132032
,,,,,,q,2.0613,0,21,21,21,1,21,images/flickr_dog_000566.jpg,images/flickr_dog_000261.jpg,Eddy,001,2021-08-04_10h38.57.423,Dog face experiment_fully sample_301-600,2021.1.4,Win32,143.5132032
,,,,,,p,1.0666,0,22,22,22,1,22,images/pixabay_dog_003238.jpg,images/pixabay_dog_002596.jpg,Eddy,001,2021-08-04_10h38.57.423,Dog face experiment_fully sample_301-600,2021.1.4,Win32,143.5132032
,,,,,,p,1.9967,0,23,23,23,1,23,images/pixabay_dog_002268.jpg,images/pixabay_dog_002360.jpg,Eddy,001,2021-08-04_10h38.57.423,Dog face experiment_fully sample_301-600,2021.1.4,Win32,143.5132032
,,,,,,q,1.0963,0,24,24,24,1,24,images/flickr_dog_000861.jpg,images/pixabay_dog_003604.jpg,Eddy,001,2021-08-04_10h38.57.423,Dog face experiment_fully sample_301-600,2021.1.4,Win32,143.5132032
,,,,,,q,3.4222,0,25,25,25,1,25,images/flickr_dog_000932.jpg,images/pixabay_dog_001465.jpg,Eddy,001,2021-08-04_10h38.57.423,Dog face experiment_fully sample_301-600,2021.1.4,Win32,143.5132032
,,,,,,p,1.1864,0,26,26,26,1,26,images/pixabay_dog_000805.jpg,images/pixabay_dog_001843.jpg,Eddy,001,2021-08-04_10h38.57.423,Dog face experiment_fully sample_301-600,2021.1.4,Win32,143.5132032
,,,,,,q,2.0202,0,27,27,27,1,27,images/pixabay_dog_003098.jpg,images/pixabay_dog_000932.jpg,Eddy,001,2021-08-04_10h38.57.423,Dog face experiment_fully sample_301-600,2021.1.4,Win32,143.5132032
,,,,,,q,1.2295,0,28,28,28,1,28,images/flickr_dog_000266.jpg,images/pixabay_dog_000952.jpg,Eddy,001,2021-08-04_10h38.57.423,Dog face experiment_fully sample_301-600,2021.1.4,Win32,143.5132032
,,,,,,q,1.0271,0,29,29,29,1,29,images/pixabay_dog_001150.jpg,images/pixabay_dog_003859.jpg,Eddy,001,2021-08-04_10h38.57.423,Dog face experiment_fully sample_301-600,2021.1.4,Win32,143.5132032
,,,,,,p,0.9084,0,30,30,30,1,30,images/pixabay_dog_001960.jpg,images/pixabay_dog_001524.jpg,Eddy,001,2021-08-04_10h38.57.423,Dog face experiment_fully sample_301-600,2021.1.4,Win32,143.5132032
,,,,,,q,1.7014,0,31,31,31,1,31,images/flickr_dog_001079.jpg,images/pixabay_dog_000914.jpg,Eddy,001,2021-08-04_10h38.57.423,Dog face experiment_fully sample_301-600,2021.1.4,Win32,143.5132032
,,,,,,p,0.9253,0,32,32,32,1,32,images/flickr_dog_000261.jpg,images/pixabay_dog_002649.jpg,Eddy,001,2021-08-04_10h38.57.423,Dog face experiment_fully sample_301-600,2021.1.4,Win32,143.5132032
,,,,,,q,1.1838,0,33,33,33,1,33,images/pixabay_dog_000914.jpg,images/pixabay_dog_000853.jpg,Eddy,001,2021-08-04_10h38.57.423,Dog face experiment_fully sample_301-600,2021.1.4,Win32,143.5132032
,,,,,,p,0.9605,0,34,34,34,1,34,images/pixabay_dog_003098.jpg,images/pixabay_dog_003357.jpg,Eddy,001,2021-08-04_10h38.57.423,Dog face experiment_fully sample_301-600,2021.1.4,Win32,143.5132032
,,,,,,p,0.7102,0,35,35,35,1,35,images/pixabay_dog_003098.jpg,images/pixabay_dog_003829.jpg,Eddy,001,2021-08-04_10h38.57.423,Dog face experiment_fully sample_301-600,2021.1.4,Win32,143.5132032
,,,,,,q,1.3684,0,36,36,36,1,36,images/pixabay_dog_002899.jpg,images/pixabay_dog_002861.jpg,Eddy,001,2021-08-04_10h38.57.423,Dog face experiment_fully sample_301-600,2021.1.4,Win32,143.5132032
,,,,,,q,3.036,0,37,37,37,1,37,images/pixabay_dog_001712.jpg,images/flickr_dog_000279.jpg,Eddy,001,2021-08-04_10h38.57.423,Dog face experiment_fully sample_301-600,2021.1.4,Win32,143.5132032
,,,,,,q,0.9025,0,38,38,38,1,38,images/pixabay_dog_002899.jpg,images/flickr_dog_000932.jpg,Eddy,001,2021-08-04_10h38.57.423,Dog face experiment_fully sample_301-600,2021.1.4,Win32,143.5132032
,,,,,,q,1.6179,0,39,39,39,1,39,images/flickr_dog_001079.jpg,images/pixabay_dog_000932.jpg,Eddy,001,2021-08-04_10h38.57.423,Dog face experiment_fully sample_301-600,2021.1.4,Win32,143.5132032
,,,,,,q,1.2835,0,40,40,40,1,40,images/flickr_dog_000194.jpg,images/flickr_dog_000913.jpg,Eddy,001,2021-08-04_10h38.57.423,Dog face experiment_fully sample_301-600,2021.1.4,Win32,143.5132032
,,,,,,p,0.9188,0,41,41,41,1,41,images/pixabay_dog_003098.jpg,images/flickr_dog_000194.jpg,Eddy,001,2021-08-04_10h38.57.423,Dog face experiment_fully sample_301-600,2021.1.4,Win32,143.5132032
,,,,,,p,2.9234,0,42,42,42,1,42,images/pixabay_dog_003238.jpg,images/flickr_dog_000083.jpg,Eddy,001,2021-08-04_10h38.57.423,Dog face experiment_fully sample_301-600,2021.1.4,Win32,143.5132032
,,,,,,q,0.9775,0,43,43,43,1,43,images/pixabay_dog_003971.jpg,images/pixabay_dog_000853.jpg,Eddy,001,2021-08-04_10h38.57.423,Dog face experiment_fully sample_301-600,2021.1.4,Win32,143.5132032
,,,,,,q,6.8279,0,44,44,44,1,44,images/pixabay_dog_000744.jpg,images/pixabay_dog_000525.jpg,Eddy,001,2021-08-04_10h38.57.423,Dog face experiment_fully sample_301-600,2021.1.4,Win32,143.5132032
,,,,,,q,0.7906,0,45,45,45,1,45,images/pixabay_dog_003305.jpg,images/pixabay_dog_003829.jpg,Eddy,001,2021-08-04_10h38.57.423,Dog face experiment_fully sample_301-600,2021.1.4,Win32,143.5132032
,,,,,,p,0.7084,0,46,46,46,1,46,images/flickr_dog_000261.jpg,images/pixabay_dog_000825.jpg,Eddy,001,2021-08-04_10h38.57.423,Dog face experiment_fully sample_301-600,2021.1.4,Win32,143.5132032
,,,,,,p,0.8697,0,47,47,47,1,47,images/flickr_dog_000201.jpg,images/flickr_dog_000913.jpg,Eddy,001,2021-08-04_10h38.57.423,Dog face experiment_fully sample_301-600,2021.1.4,Win32,143.5132032
,,,,,,p,1.4469,0,48,48,48,1,48,images/pixabay_dog_000932.jpg,images/flickr_dog_000913.jpg,Eddy,001,2021-08-04_10h38.57.423,Dog face experiment_fully sample_301-600,2021.1.4,Win32,143.5132032
,,,,,,p,0.9961,0,49,49,49,1,49,images/pixabay_dog_000932.jpg,images/pixabay_dog_003357.jpg,Eddy,001,2021-08-04_10h38.57.423,Dog face experiment_fully sample_301-600,2021.1.4,Win32,143.5132032
,,,,,,q,1.1255,0,50,50,50,1,50,images/flickr_dog_000019.jpg,images/pixabay_dog_003829.jpg,Eddy,001,2021-08-04_10h38.57.423,Dog face experiment_fully sample_301-600,2021.1.4,Win32,143.5132032
,,,,,,q,1.1531,0,51,51,51,1,51,images/flickr_dog_000083.jpg,images/pixabay_dog_000932.jpg,Eddy,001,2021-08-04_10h38.57.423,Dog face experiment_fully sample_301-600,2021.1.4,Win32,143.5132032
,,,,,,q,2.954,0,52,52,52,1,52,images/pixabay_dog_000853.jpg,images/pixabay_dog_000952.jpg,Eddy,001,2021-08-04_10h38.57.423,Dog face experiment_fully sample_301-600,2021.1.4,Win32,143.5132032
,,,,,,q,1.3804,0,53,53,53,1,53,images/flickr_dog_000566.jpg,images/pixabay_dog_002989.jpg,Eddy,001,2021-08-04_10h38.57.423,Dog face experiment_fully sample_301-600,2021.1.4,Win32,143.5132032
,,,,,,q,0.8483,0,54,54,54,1,54,images/flickr_dog_000266.jpg,images/pixabay_dog_000525.jpg,Eddy,001,2021-08-04_10h38.57.423,Dog face experiment_fully sample_301-600,2021.1.4,Win32,143.5132032
,,,,,,p,1.2208,0,55,55,55,1,55,images/pixabay_dog_002989.jpg,images/pixabay_dog_003357.jpg,Eddy,001,2021-08-04_10h38.57.423,Dog face experiment_fully sample_301-600,2021.1.4,Win32,143.5132032
,,,,,,q,1.0726,0,56,56,56,1,56,images/flickr_dog_000019.jpg,images/pixabay_dog_002861.jpg,Eddy,001,2021-08-04_10h38.57.423,Dog face experiment_fully sample_301-600,2021.1.4,Win32,143.5132032
,,,,,,p,0.9574,0,57,57,57,1,57,images/pixabay_dog_000805.jpg,images/pixabay_dog_003859.jpg,Eddy,001,2021-08-04_10h38.57.423,Dog face experiment_fully sample_301-600,2021.1.4,Win32,143.5132032
,,,,,,q,4.5139,0,58,58,58,1,58,images/flickr_dog_000201.jpg,images/pixabay_dog_003829.jpg,Eddy,001,2021-08-04_10h38.57.423,Dog face experiment_fully sample_301-600,2021.1.4,Win32,143.5132032
,,,,,,q,1.1382,0,59,59,59,1,59,images/pixabay_dog_002268.jpg,images/pixabay_dog_000952.jpg,Eddy,001,2021-08-04_10h38.57.423,Dog face experiment_fully sample_301-600,2021.1.4,Win32,143.5132032
,,,,,,q,1.5526,0,60,60,60,1,60,images/pixabay_dog_002793.jpg,images/pixabay_dog_000952.jpg,Eddy,001,2021-08-04_10h38.57.423,Dog face experiment_fully sample_301-600,2021.1.4,Win32,143.5132032
,,,,,,p,0.9729,0,61,61,61,1,61,images/flickr_dog_000232.jpg,images/flickr_dog_000194.jpg,Eddy,001,2021-08-04_10h38.57.423,Dog face experiment_fully sample_301-600,2021.1.4,Win32,143.5132032
,,,,,,p,1.3716,0,62,62,62,1,62,images/flickr_dog_000019.jpg,images/pixabay_dog_000914.jpg,Eddy,001,2021-08-04_10h38.57.423,Dog face experiment_fully sample_301-600,2021.1.4,Win32,143.5132032
,,,,,,q,1.7817,0,63,63,63,1,63,images/flickr_dog_000232.jpg,images/pixabay_dog_000853.jpg,Eddy,001,2021-08-04_10h38.57.423,Dog face experiment_fully sample_301-600,2021.1.4,Win32,143.5132032
,,,,,,q,1.0236,0,64,64,64,1,64,images/pixabay_dog_002360.jpg,images/pixabay_dog_002861.jpg,Eddy,001,2021-08-04_10h38.57.423,Dog face experiment_fully sample_301-600,2021.1.4,Win32,143.5132032
,,,,,,q,0.9551,0,65,65,65,1,65,images/pixabay_dog_000744.jpg,images/pixabay_dog_001465.jpg,Eddy,001,2021-08-04_10h38.57.423,Dog face experiment_fully sample_301-600,2021.1.4,Win32,143.5132032
,,,,,,p,0.8966,0,66,66,66,1,66,images/pixabay_dog_002861.jpg,images/pixabay_dog_002596.jpg,Eddy,001,2021-08-04_10h38.57.423,Dog face experiment_fully sample_301-600,2021.1.4,Win32,143.5132032
,,,,,,p,0.8313,0,67,67,67,1,67,images/pixabay_dog_002793.jpg,images/pixabay_dog_001524.jpg,Eddy,001,2021-08-04_10h38.57.423,Dog face experiment_fully sample_301-600,2021.1.4,Win32,143.5132032
,,,,,,p,0.8778,0,68,68,68,1,68,images/flickr_dog_000913.jpg,images/flickr_dog_001107.jpg,Eddy,001,2021-08-04_10h38.57.423,Dog face experiment_fully sample_301-600,2021.1.4,Win32,143.5132032
,,,,,,q,1.4952,0,69,69,69,1,69,images/pixabay_dog_002596.jpg,images/pixabay_dog_000525.jpg,Eddy,001,2021-08-04_10h38.57.423,Dog face experiment_fully sample_301-600,2021.1.4,Win32,143.5132032
,,,,,,p,2.5281,0,70,70,70,1,70,images/pixabay_dog_002268.jpg,images/flickr_dog_000083.jpg,Eddy,001,2021-08-04_10h38.57.423,Dog face experiment_fully sample_301-600,2021.1.4,Win32,143.5132032
,,,,,,p,1.2013,0,71,71,71,1,71,images/pixabay_dog_003098.jpg,images/pixabay_dog_003238.jpg,Eddy,001,2021-08-04_10h38.57.423,Dog face experiment_fully sample_301-600,2021.1.4,Win32,143.5132032
,,,,,,p,0.9188,0,72,72,72,1,72,images/pixabay_dog_000805.jpg,images/pixabay_dog_002596.jpg,Eddy,001,2021-08-04_10h38.57.423,Dog face experiment_fully sample_301-600,2021.1.4,Win32,143.5132032
,,,,,,p,0.886,0,73,73,73,1,73,images/pixabay_dog_003727.jpg,images/flickr_dog_000194.jpg,Eddy,001,2021-08-04_10h38.57.423,Dog face experiment_fully sample_301-600,2021.1.4,Win32,143.5132032
,,,,,,q,0.9182,0,74,74,74,1,74,images/pixabay_dog_001150.jpg,images/pixabay_dog_001524.jpg,Eddy,001,2021-08-04_10h38.57.423,Dog face experiment_fully sample_301-600,2021.1.4,Win32,143.5132032
,,,,,,p,0.8328,0,75,75,75,1,75,images/pixabay_dog_002861.jpg,images/flickr_dog_001107.jpg,Eddy,001,2021-08-04_10h38.57.423,Dog face experiment_fully sample_301-600,2021.1.4,Win32,143.5132032
,,,,,,q,1.0681,0,76,76,76,1,76,images/flickr_dog_000861.jpg,images/pixabay_dog_000932.jpg,Eddy,001,2021-08-04_10h38.57.423,Dog face experiment_fully sample_301-600,2021.1.4,Win32,143.5132032
,,,,,,q,1.5906,0,77,77,77,1,77,images/flickr_dog_000266.jpg,images/pixabay_dog_003604.jpg,Eddy,001,2021-08-04_10h38.57.423,Dog face experiment_fully sample_301-600,2021.1.4,Win32,143.5132032
,,,,,,p,1.5078,0,78,78,78,1,78,images/pixabay_dog_002649.jpg,images/pixabay_dog_003859.jpg,Eddy,001,2021-08-04_10h38.57.423,Dog face experiment_fully sample_301-600,2021.1.4,Win32,143.5132032
,,,,,,p,1.2508,0,79,79,79,1,79,images/pixabay_dog_001255.jpg,images/flickr_dog_000201.jpg,Eddy,001,2021-08-04_10h38.57.423,Dog face experiment_fully sample_301-600,2021.1.4,Win32,143.5132032
,,,,,,p,1.5302,0,80,80,80,1,80,images/pixabay_dog_003727.jpg,images/pixabay_dog_000525.jpg,Eddy,001,2021-08-04_10h38.57.423,Dog face experiment_fully sample_301-600,2021.1.4,Win32,143.5132032
,,,,,,q,0.9815,0,81,81,81,1,81,images/flickr_dog_000194.jpg,images/pixabay_dog_002596.jpg,Eddy,001,2021-08-04_10h38.57.423,Dog face experiment_fully sample_301-600,2021.1.4,Win32,143.5132032
,,,,,,q,1.3686,0,82,82,82,1,82,images/flickr_dog_001079.jpg,images/flickr_dog_000232.jpg,Eddy,001,2021-08-04_10h38.57.423,Dog face experiment_fully sample_301-600,2021.1.4,Win32,143.5132032
,,,,,,q,0.8627,0,83,83,83,1,83,images/flickr_dog_001079.jpg,images/pixabay_dog_002861.jpg,Eddy,001,2021-08-04_10h38.57.423,Dog face experiment_fully sample_301-600,2021.1.4,Win32,143.5132032
,,,,,,q,1.0283,0,84,84,84,1,84,images/pixabay_dog_002899.jpg,images/pixabay_dog_000805.jpg,Eddy,001,2021-08-04_10h38.57.423,Dog face experiment_fully sample_301-600,2021.1.4,Win32,143.5132032
,,,,,,q,0.9383,0,85,85,85,1,85,images/flickr_dog_000266.jpg,images/flickr_dog_000913.jpg,Eddy,001,2021-08-04_10h38.57.423,Dog face experiment_fully sample_301-600,2021.1.4,Win32,143.5132032
,,,,,,p,0.9352,0,86,86,86,1,86,images/pixabay_dog_000932.jpg,images/pixabay_dog_003859.jpg,Eddy,001,2021-08-04_10h38.57.423,Dog face experiment_fully sample_301-600,2021.1.4,Win32,143.5132032
,,,,,,p,1.3481,0,87,87,87,1,87,images/pixabay_dog_003238.jpg,images/pixabay_dog_000914.jpg,Eddy,001,2021-08-04_10h38.57.423,Dog face experiment_fully sample_301-600,2021.1.4,Win32,143.5132032
,,,,,,p,1.037,0,88,88,88,1,88,images/pixabay_dog_002989.jpg,images/pixabay_dog_001843.jpg,Eddy,001,2021-08-04_10h38.57.423,Dog face experiment_fully sample_301-600,2021.1.4,Win32,143.5132032
,,,,,,p,1.473,0,89,89,89,1,89,images/pixabay_dog_002744.jpg,images/pixabay_dog_002649.jpg,Eddy,001,2021-08-04_10h38.57.423,Dog face experiment_fully sample_301-600,2021.1.4,Win32,143.5132032
,,,,,,p,0.8253,0,90,90,90,1,90,images/pixabay_dog_003971.jpg,images/pixabay_dog_000825.jpg,Eddy,001,2021-08-04_10h38.57.423,Dog face experiment_fully sample_301-600,2021.1.4,Win32,143.5132032
,,,,,,q,2.446,0,91,91,91,1,91,images/flickr_dog_001079.jpg,images/pixabay_dog_003829.jpg,Eddy,001,2021-08-04_10h38.57.423,Dog face experiment_fully sample_301-600,2021.1.4,Win32,143.5132032
,,,,,,q,0.872,0,92,92,92,1,92,images/flickr_dog_001079.jpg,images/flickr_dog_000913.jpg,Eddy,001,2021-08-04_10h38.57.423,Dog face experiment_fully sample_301-600,2021.1.4,Win32,143.5132032
,,,,,,q,1.0146,0,93,93,93,1,93,images/pixabay_dog_003305.jpg,images/pixabay_dog_001465.jpg,Eddy,001,2021-08-04_10h38.57.423,Dog face experiment_fully sample_301-600,2021.1.4,Win32,143.5132032
,,,,,,p,1.6899,0,94,94,94,1,94,images/pixabay_dog_001255.jpg,images/flickr_dog_000232.jpg,Eddy,001,2021-08-04_10h38.57.423,Dog face experiment_fully sample_301-600,2021.1.4,Win32,143.5132032
,,,,,,p,2.109,0,95,95,95,1,95,images/pixabay_dog_002861.jpg,images/pixabay_dog_000952.jpg,Eddy,001,2021-08-04_10h38.57.423,Dog face experiment_fully sample_301-600,2021.1.4,Win32,143.5132032
,,,,,,q,1.2092,0,96,96,96,1,96,images/pixabay_dog_001150.jpg,images/pixabay_dog_000952.jpg,Eddy,001,2021-08-04_10h38.57.423,Dog face experiment_fully sample_301-600,2021.1.4,Win32,143.5132032
,,,,,,q,1.3439,0,97,97,97,1,97,images/flickr_dog_000932.jpg,images/pixabay_dog_002793.jpg,Eddy,001,2021-08-04_10h38.57.423,Dog face experiment_fully sample_301-600,2021.1.4,Win32,143.5132032
,,,,,,q,1.4137,0,98,98,98,1,98,images/pixabay_dog_002899.jpg,images/pixabay_dog_003357.jpg,Eddy,001,2021-08-04_10h38.57.423,Dog face experiment_fully sample_301-600,2021.1.4,Win32,143.5132032
,,,,,,p,0.8894,0,99,99,99,1,99,images/pixabay_dog_000952.jpg,images/pixabay_dog_001843.jpg,Eddy,001,2021-08-04_10h38.57.423,Dog face experiment_fully sample_301-600,2021.1.4,Win32,143.5132032
,,,,,,q,0.868,0,100,100,100,1,100,images/pixabay_dog_003305.jpg,images/flickr_dog_000932.jpg,Eddy,001,2021-08-04_10h38.57.423,Dog face experiment_fully sample_301-600,2021.1.4,Win32,143.5132032
,,,,,,p,0.997,0,101,101,101,1,101,images/pixabay_dog_003971.jpg,images/pixabay_dog_003310.jpg,Eddy,001,2021-08-04_10h38.57.423,Dog face experiment_fully sample_301-600,2021.1.4,Win32,143.5132032
,,,,,,q,1.0047,0,102,102,102,1,102,images/pixabay_dog_003305.jpg,images/pixabay_dog_003859.jpg,Eddy,001,2021-08-04_10h38.57.423,Dog face experiment_fully sample_301-600,2021.1.4,Win32,143.5132032
,,,,,,q,0.6011,0,103,103,103,1,103,images/pixabay_dog_003305.jpg,images/pixabay_dog_001255.jpg,Eddy,001,2021-08-04_10h38.57.423,Dog face experiment_fully sample_301-600,2021.1.4,Win32,143.5132032
,,,,,,p,0.8138,0,104,104,104,1,104,images/flickr_dog_000201.jpg,images/pixabay_dog_000825.jpg,Eddy,001,2021-08-04_10h38.57.423,Dog face experiment_fully sample_301-600,2021.1.4,Win32,143.5132032
,,,,,,p,1.1807,0,105,105,105,1,105,images/flickr_dog_001079.jpg,images/pixabay_dog_001524.jpg,Eddy,001,2021-08-04_10h38.57.423,Dog face experiment_fully sample_301-600,2021.1.4,Win32,143.5132032
,,,,,,q,0.9301,0,106,106,106,1,106,images/flickr_dog_000861.jpg,images/pixabay_dog_002596.jpg,Eddy,001,2021-08-04_10h38.57.423,Dog face experiment_fully sample_301-600,2021.1.4,Win32,143.5132032
,,,,,,p,1.0648,0,107,107,107,1,107,images/pixabay_dog_002793.jpg,images/pixabay_dog_001843.jpg,Eddy,001,2021-08-04_10h38.57.423,Dog face experiment_fully sample_301-600,2021.1.4,Win32,143.5132032
,,,,,,q,6.085,0,108,108,108,1,108,images/flickr_dog_000261.jpg,images/pixabay_dog_002989.jpg,Eddy,001,2021-08-04_10h38.57.423,Dog face experiment_fully sample_301-600,2021.1.4,Win32,143.5132032
,,,,,,q,1.2076,0,109,109,109,1,109,images/pixabay_dog_002360.jpg,images/flickr_dog_000194.jpg,Eddy,001,2021-08-04_10h38.57.423,Dog face experiment_fully sample_301-600,2021.1.4,Win32,143.5132032
,,,,,,p,2.1814,0,110,110,110,1,110,images/pixabay_dog_002744.jpg,images/flickr_dog_000083.jpg,Eddy,001,2021-08-04_10h38.57.423,Dog face experiment_fully sample_301-600,2021.1.4,Win32,143.5132032
,,,,,,q,0.9142,0,111,111,111,1,111,images/pixabay_dog_002282.jpg,images/pixabay_dog_001960.jpg,Eddy,001,2021-08-04_10h38.57.423,Dog face experiment_fully sample_301-600,2021.1.4,Win32,143.5132032
,,,,,,q,0.8882,0,112,112,112,1,112,images/flickr_dog_000194.jpg,images/pixabay_dog_000525.jpg,Eddy,001,2021-08-04_10h38.57.423,Dog face experiment_fully sample_301-600,2021.1.4,Win32,143.5132032
,,,,,,p,1.584,0,113,113,113,1,113,images/pixabay_dog_002268.jpg,images/pixabay_dog_002282.jpg,Eddy,001,2021-08-04_10h38.57.423,Dog face experiment_fully sample_301-600,2021.1.4,Win32,143.5132032
,,,,,,p,0.9548,0,114,114,114,1,114,images/pixabay_dog_003971.jpg,images/pixabay_dog_002360.jpg,Eddy,001,2021-08-04_10h38.57.423,Dog face experiment_fully sample_301-600,2021.1.4,Win32,143.5132032
,,,,,,p,0.8294,0,115,115,115,1,115,images/pixabay_dog_003971.jpg,images/flickr_dog_000019.jpg,Eddy,001,2021-08-04_10h38.57.423,Dog face experiment_fully sample_301-600,2021.1.4,Win32,143.5132032
,,,,,,q,1.1329,0,116,116,116,1,116,images/flickr_dog_000083.jpg,images/pixabay_dog_000525.jpg,Eddy,001,2021-08-04_10h38.57.423,Dog face experiment_fully sample_301-600,2021.1.4,Win32,143.5132032
,,,,,,p,0.7786,0,117,117,117,1,117,images/pixabay_dog_003971.jpg,images/pixabay_dog_000914.jpg,Eddy,001,2021-08-04_10h38.57.423,Dog face experiment_fully sample_301-600,2021.1.4,Win32,143.5132032
,,,,,,p,0.8908,0,118,118,118,1,118,images/pixabay_dog_002360.jpg,images/pixabay_dog_001524.jpg,Eddy,001,2021-08-04_10h38.57.423,Dog face experiment_fully sample_301-600,2021.1.4,Win32,143.5132032
,,,,,,q,1.0797,0,119,119,119,1,119,images/pixabay_dog_002899.jpg,images/flickr_dog_000194.jpg,Eddy,001,2021-08-04_10h38.57.423,Dog face experiment_fully sample_301-600,2021.1.4,Win32,143.5132032
,,,,,,p,0.8564,0,120,120,120,1,120,images/pixabay_dog_000042.jpg,images/pixabay_dog_003310.jpg,Eddy,001,2021-08-04_10h38.57.423,Dog face experiment_fully sample_301-600,2021.1.4,Win32,143.5132032
,,,,,,p,3.5831,0,121,121,121,1,121,images/pixabay_dog_002268.jpg,images/pixabay_dog_001712.jpg,Eddy,001,2021-08-04_10h38.57.423,Dog face experiment_fully sample_301-600,2021.1.4,Win32,143.5132032
,,,,,,q,3.1392,0,122,122,122,1,122,images/pixabay_dog_002861.jpg,images/pixabay_dog_002989.jpg,Eddy,001,2021-08-04_10h38.57.423,Dog face experiment_fully sample_301-600,2021.1.4,Win32,143.5132032
,,,,,,p,1.0797,0,123,123,123,1,123,images/pixabay_dog_002282.jpg,images/pixabay_dog_003310.jpg,Eddy,001,2021-08-04_10h38.57.423,Dog face experiment_fully sample_301-600,2021.1.4,Win32,143.5132032
,,,,,,q,1.8631,0,124,124,124,1,124,images/pixabay_dog_001712.jpg,images/pixabay_dog_001465.jpg,Eddy,001,2021-08-04_10h38.57.423,Dog face experiment_fully sample_301-600,2021.1.4,Win32,143.5132032
,,,,,,q,2.5262,0,125,125,125,1,125,images/pixabay_dog_003859.jpg,images/pixabay_dog_000525.jpg,Eddy,001,2021-08-04_10h38.57.423,Dog face experiment_fully sample_301-600,2021.1.4,Win32,143.5132032
,,,,,,q,0.7884,0,126,126,126,1,126,images/pixabay_dog_003305.jpg,images/pixabay_dog_001960.jpg,Eddy,001,2021-08-04_10h38.57.423,Dog face experiment_fully sample_301-600,2021.1.4,Win32,143.5132032
,,,,,,p,1.0906,0,127,127,127,1,127,images/pixabay_dog_002282.jpg,images/pixabay_dog_001524.jpg,Eddy,001,2021-08-04_10h38.57.423,Dog face experiment_fully sample_301-600,2021.1.4,Win32,143.5132032
,,,,,,p,0.9099,0,128,128,128,1,128,images/pixabay_dog_001712.jpg,images/pixabay_dog_003357.jpg,Eddy,001,2021-08-04_10h38.57.423,Dog face experiment_fully sample_301-600,2021.1.4,Win32,143.5132032
,,,,,,p,2.1737,0,129,129,129,1,129,images/flickr_dog_000261.jpg,images/flickr_dog_000083.jpg,Eddy,001,2021-08-04_10h38.57.423,Dog face experiment_fully sample_301-600,2021.1.4,Win32,143.5132032
,,,,,,q,1.2792,0,130,130,130,1,130,images/flickr_dog_000566.jpg,images/pixabay_dog_003829.jpg,Eddy,001,2021-08-04_10h38.57.423,Dog face experiment_fully sample_301-600,2021.1.4,Win32,143.5132032
,,,,,,p,1.1076,0,131,131,131,1,131,images/pixabay_dog_002744.jpg,images/flickr_dog_001107.jpg,Eddy,001,2021-08-04_10h38.57.423,Dog face experiment_fully sample_301-600,2021.1.4,Win32,143.5132032
,,,,,,q,1.4681,0,132,132,132,1,132,images/flickr_dog_000566.jpg,images/flickr_dog_000913.jpg,Eddy,001,2021-08-04_10h38.57.423,Dog face experiment_fully sample_301-600,2021.1.4,Win32,143.5132032
,,,,,,p,1.9182,0,133,133,133,1,133,images/pixabay_dog_003305.jpg,images/pixabay_dog_000914.jpg,Eddy,001,2021-08-04_10h38.57.423,Dog face experiment_fully sample_301-600,2021.1.4,Win32,143.5132032
,,,,,,q,7.2509,0,134,134,134,1,134,images/pixabay_dog_002744.jpg,images/pixabay_dog_001712.jpg,Eddy,001,2021-08-04_10h38.57.423,Dog face experiment_fully sample_301-600,2021.1.4,Win32,143.5132032
,,,,,,p,1.2513,0,135,135,135,1,135,images/pixabay_dog_003971.jpg,images/flickr_dog_001079.jpg,Eddy,001,2021-08-04_10h38.57.423,Dog face experiment_fully sample_301-600,2021.1.4,Win32,143.5132032
,,,,,,q,1.1636,0,136,136,136,1,136,images/flickr_dog_000232.jpg,images/pixabay_dog_000932.jpg,Eddy,001,2021-08-04_10h38.57.423,Dog face experiment_fully sample_301-600,2021.1.4,Win32,143.5132032
,,,,,,q,0.9941,0,137,137,137,1,137,images/pixabay_dog_000914.jpg,images/pixabay_dog_003727.jpg,Eddy,001,2021-08-04_10h38.57.423,Dog face experiment_fully sample_301-600,2021.1.4,Win32,143.5132032
,,,,,,p,1.0492,0,138,138,138,1,138,images/pixabay_dog_003098.jpg,images/pixabay_dog_002649.jpg,Eddy,001,2021-08-04_10h38.57.423,Dog face experiment_fully sample_301-600,2021.1.4,Win32,143.5132032
,,,,,,q,1.0096,0,139,139,139,1,139,images/pixabay_dog_002649.jpg,images/pixabay_dog_000853.jpg,Eddy,001,2021-08-04_10h38.57.423,Dog face experiment_fully sample_301-600,2021.1.4,Win32,143.5132032
,,,,,,q,1.1561,0,140,140,140,1,140,images/pixabay_dog_000744.jpg,images/pixabay_dog_002989.jpg,Eddy,001,2021-08-04_10h38.57.423,Dog face experiment_fully sample_301-600,2021.1.4,Win32,143.5132032
,,,,,,q,0.8778,0,141,141,141,1,141,images/pixabay_dog_003305.jpg,images/pixabay_dog_000744.jpg,Eddy,001,2021-08-04_10h38.57.423,Dog face experiment_fully sample_301-600,2021.1.4,Win32,143.5132032
,,,,,,p,0.7439,0,142,142,142,1,142,images/flickr_dog_000861.jpg,images/pixabay_dog_003357.jpg,Eddy,001,2021-08-04_10h38.57.423,Dog face experiment_fully sample_301-600,2021.1.4,Win32,143.5132032
,,,,,,p,0.8964,0,143,143,143,1,143,images/pixabay_dog_003971.jpg,images/pixabay_dog_002899.jpg,Eddy,001,2021-08-04_10h38.57.423,Dog face experiment_fully sample_301-600,2021.1.4,Win32,143.5132032
,,,,,,p,0.9727,0,144,144,144,1,144,images/flickr_dog_000566.jpg,images/pixabay_dog_000825.jpg,Eddy,001,2021-08-04_10h38.57.423,Dog face experiment_fully sample_301-600,2021.1.4,Win32,143.5132032
,,,,,,q,0.84,0,145,145,145,1,145,images/pixabay_dog_002899.jpg,images/pixabay_dog_002989.jpg,Eddy,001,2021-08-04_10h38.57.423,Dog face experiment_fully sample_301-600,2021.1.4,Win32,143.5132032
,,,,,,p,1.0053,0,146,146,146,1,146,images/pixabay_dog_000042.jpg,images/pixabay_dog_000744.jpg,Eddy,001,2021-08-04_10h38.57.423,Dog face experiment_fully sample_301-600,2021.1.4,Win32,143.5132032
,,,,,,p,0.8998,0,147,147,147,1,147,images/flickr_dog_000201.jpg,images/flickr_dog_001107.jpg,Eddy,001,2021-08-04_10h38.57.423,Dog face experiment_fully sample_301-600,2021.1.4,Win32,143.5132032
,,,,,,q,2.1232,0,148,148,148,1,148,images/flickr_dog_000566.jpg,images/pixabay_dog_002793.jpg,Eddy,001,2021-08-04_10h38.57.423,Dog face experiment_fully sample_301-600,2021.1.4,Win32,143.5132032
,,,,,,p,0.8836,0,149,149,149,1,149,images/flickr_dog_000261.jpg,images/pixabay_dog_001843.jpg,Eddy,001,2021-08-04_10h38.57.423,Dog face experiment_fully sample_301-600,2021.1.4,Win32,143.5132032
,,,,,,p,0.8432,0,150,150,150,1,150,images/flickr_dog_000232.jpg,images/pixabay_dog_001843.jpg,Eddy,001,2021-08-04_10h38.57.423,Dog face experiment_fully sample_301-600,2021.1.4,Win32,143.5132032
,,,,,,p,1.045,0,151,151,151,1,151,images/pixabay_dog_000914.jpg,images/pixabay_dog_002596.jpg,Eddy,001,2021-08-04_10h38.57.423,Dog face experiment_fully sample_301-600,2021.1.4,Win32,143.5132032
,,,,,,q,1.0297,0,152,152,152,1,152,images/pixabay_dog_002744.jpg,images/pixabay_dog_002989.jpg,Eddy,001,2021-08-04_10h38.57.423,Dog face experiment_fully sample_301-600,2021.1.4,Win32,143.5132032
,,,,,,p,0.7723,0,153,153,153,1,153,images/pixabay_dog_001255.jpg,images/flickr_dog_000266.jpg,Eddy,001,2021-08-04_10h38.57.423,Dog face experiment_fully sample_301-600,2021.1.4,Win32,143.5132032
,,,,,,q,0.796,0,154,154,154,1,154,images/flickr_dog_000861.jpg,images/pixabay_dog_001960.jpg,Eddy,001,2021-08-04_10h38.57.423,Dog face experiment_fully sample_301-600,2021.1.4,Win32,143.5132032
,,,,,,q,1.2453,0,155,155,155,1,155,images/pixabay_dog_003971.jpg,images/pixabay_dog_003098.jpg,Eddy,001,2021-08-04_10h38.57.423,Dog face experiment_fully sample_301-600,2021.1.4,Win32,143.5132032
,,,,,,q,0.9104,0,156,156,156,1,156,images/pixabay_dog_002649.jpg,images/pixabay_dog_001524.jpg,Eddy,001,2021-08-04_10h38.57.423,Dog face experiment_fully sample_301-600,2021.1.4,Win32,143.5132032
,,,,,,q,1.5532,0,157,157,157,1,157,images/flickr_dog_000566.jpg,images/pixabay_dog_003238.jpg,Eddy,001,2021-08-04_10h38.57.423,Dog face experiment_fully sample_301-600,2021.1.4,Win32,143.5132032
,,,,,,q,0.674,0,158,158,158,1,158,images/flickr_dog_000566.jpg,images/pixabay_dog_001255.jpg,Eddy,001,2021-08-04_10h38.57.423,Dog face experiment_fully sample_301-600,2021.1.4,Win32,143.5132032
,,,,,,q,2.1167,0,159,159,159,1,159,images/pixabay_dog_000914.jpg,images/flickr_dog_000232.jpg,Eddy,001,2021-08-04_10h38.57.423,Dog face experiment_fully sample_301-600,2021.1.4,Win32,143.5132032
,,,,,,q,1.1585,0,160,160,160,1,160,images/pixabay_dog_002360.jpg,images/pixabay_dog_000932.jpg,Eddy,001,2021-08-04_10h38.57.423,Dog face experiment_fully sample_301-600,2021.1.4,Win32,143.5132032
,,,,,,p,1.8062,0,161,161,161,1,161,images/flickr_dog_000019.jpg,images/flickr_dog_000083.jpg,Eddy,001,2021-08-04_10h38.57.423,Dog face experiment_fully sample_301-600,2021.1.4,Win32,143.5132032
,,,,,,p,1.8196,0,162,162,162,1,162,images/flickr_dog_000566.jpg,images/flickr_dog_001079.jpg,Eddy,001,2021-08-04_10h38.57.423,Dog face experiment_fully sample_301-600,2021.1.4,Win32,143.5132032
,,,,,,p,0.7626,0,163,163,163,1,163,images/pixabay_dog_003727.jpg,images/pixabay_dog_001524.jpg,Eddy,001,2021-08-04_10h38.57.423,Dog face experiment_fully sample_301-600,2021.1.4,Win32,143.5132032
,,,,,,q,0.9382,0,164,164,164,1,164,images/pixabay_dog_001150.jpg,images/pixabay_dog_002744.jpg,Eddy,001,2021-08-04_10h38.57.423,Dog face experiment_fully sample_301-600,2021.1.4,Win32,143.5132032
,,,,,,q,1.0565,0,165,165,165,1,165,images/flickr_dog_000261.jpg,images/pixabay_dog_001465.jpg,Eddy,001,2021-08-04_10h38.57.423,Dog face experiment_fully sample_301-600,2021.1.4,Win32,143.5132032
,,,,,,p,1.0908,0,166,166,166,1,166,images/flickr_dog_000266.jpg,images/pixabay_dog_001524.jpg,Eddy,001,2021-08-04_10h38.57.423,Dog face experiment_fully sample_301-600,2021.1.4,Win32,143.5132032
,,,,,,p,0.7502,0,167,167,167,1,167,images/pixabay_dog_000853.jpg,images/pixabay_dog_000825.jpg,Eddy,001,2021-08-04_10h38.57.423,Dog face experiment_fully sample_301-600,2021.1.4,Win32,143.5132032
,,,,,,p,1.2894,0,168,168,168,1,168,images/flickr_dog_000232.jpg,images/pixabay_dog_002793.jpg,Eddy,001,2021-08-04_10h38.57.423,Dog face experiment_fully sample_301-600,2021.1.4,Win32,143.5132032
,,,,,,q,0.8966,0,169,169,169,1,169,images/pixabay_dog_001150.jpg,images/flickr_dog_000201.jpg,Eddy,001,2021-08-04_10h38.57.423,Dog face experiment_fully sample_301-600,2021.1.4,Win32,143.5132032
,,,,,,q,1.0111,0,170,170,170,1,170,images/flickr_dog_001079.jpg,images/pixabay_dog_000525.jpg,Eddy,001,2021-08-04_10h38.57.423,Dog face experiment_fully sample_301-600,2021.1.4,Win32,143.5132032
,,,,,,p,0.9588,0,171,171,171,1,171,images/pixabay_dog_002744.jpg,images/flickr_dog_000194.jpg,Eddy,001,2021-08-04_10h38.57.423,Dog face experiment_fully sample_301-600,2021.1.4,Win32,143.5132032
,,,,,,p,0.9543,0,172,172,172,1,172,images/pixabay_dog_003829.jpg,images/pixabay_dog_000952.jpg,Eddy,001,2021-08-04_10h38.57.423,Dog face experiment_fully sample_301-600,2021.1.4,Win32,143.5132032
,,,,,,q,0.9811,0,173,173,173,1,173,images/pixabay_dog_002744.jpg,images/pixabay_dog_000853.jpg,Eddy,001,2021-08-04_10h38.57.423,Dog face experiment_fully sample_301-600,2021.1.4,Win32,143.5132032
,,,,,,p,0.9315,0,174,174,174,1,174,images/pixabay_dog_003727.jpg,images/pixabay_dog_000825.jpg,Eddy,001,2021-08-04_10h38.57.423,Dog face experiment_fully sample_301-600,2021.1.4,Win32,143.5132032
,,,,,,p,1.0963,0,175,175,175,1,175,images/flickr_dog_000019.jpg,images/flickr_dog_000266.jpg,Eddy,001,2021-08-04_10h38.57.423,Dog face experiment_fully sample_301-600,2021.1.4,Win32,143.5132032
,,,,,,p,1.0873,0,176,176,176,1,176,images/pixabay_dog_002744.jpg,images/pixabay_dog_000805.jpg,Eddy,001,2021-08-04_10h38.57.423,Dog face experiment_fully sample_301-600,2021.1.4,Win32,143.5132032
,,,,,,q,0.8745,0,177,177,177,1,177,images/pixabay_dog_000825.jpg,images/pixabay_dog_000525.jpg,Eddy,001,2021-08-04_10h38.57.423,Dog face experiment_fully sample_301-600,2021.1.4,Win32,143.5132032
,,,,,,p,0.8681,0,178,178,178,1,178,images/pixabay_dog_002596.jpg,images/pixabay_dog_001524.jpg,Eddy,001,2021-08-04_10h38.57.423,Dog face experiment_fully sample_301-600,2021.1.4,Win32,143.5132032
,,,,,,p,1.7522,0,179,179,179,1,179,images/flickr_dog_000232.jpg,images/flickr_dog_000913.jpg,Eddy,001,2021-08-04_10h38.57.423,Dog face experiment_fully sample_301-600,2021.1.4,Win32,143.5132032
,,,,,,p,1.6537,0,180,180,180,1,180,images/pixabay_dog_002793.jpg,images/pixabay_dog_002596.jpg,Eddy,001,2021-08-04_10h38.57.423,Dog face experiment_fully sample_301-600,2021.1.4,Win32,143.5132032
,,,,,,p,1.1469,0,181,181,181,1,181,images/pixabay_dog_002989.jpg,images/flickr_dog_000194.jpg,Eddy,001,2021-08-04_10h38.57.423,Dog face experiment_fully sample_301-600,2021.1.4,Win32,143.5132032
,,,,,,p,0.68,0,182,182,182,1,182,images/pixabay_dog_001712.jpg,images/flickr_dog_001107.jpg,Eddy,001,2021-08-04_10h38.57.423,Dog face experiment_fully sample_301-600,2021.1.4,Win32,143.5132032
,,,,,,q,1.4327,0,183,183,183,1,183,images/flickr_dog_000019.jpg,images/pixabay_dog_002989.jpg,Eddy,001,2021-08-04_10h38.57.423,Dog face experiment_fully sample_301-600,2021.1.4,Win32,143.5132032
,,,,,,p,0.9723,0,184,184,184,1,184,images/pixabay_dog_002899.jpg,images/pixabay_dog_003604.jpg,Eddy,001,2021-08-04_10h38.57.423,Dog face experiment_fully sample_301-600,2021.1.4,Win32,143.5132032
,,,,,,p,1.2367,0,185,185,185,1,185,images/flickr_dog_000279.jpg,images/pixabay_dog_002596.jpg,Eddy,001,2021-08-04_10h38.57.423,Dog face experiment_fully sample_301-600,2021.1.4,Win32,143.5132032
,,,,,,q,0.7535,0,186,186,186,1,186,images/flickr_dog_000861.jpg,images/pixabay_dog_003310.jpg,Eddy,001,2021-08-04_10h38.57.423,Dog face experiment_fully sample_301-600,2021.1.4,Win32,143.5132032
,,,,,,p,1.7349,0,187,187,187,1,187,images/pixabay_dog_001255.jpg,images/pixabay_dog_003829.jpg,Eddy,001,2021-08-04_10h38.57.423,Dog face experiment_fully sample_301-600,2021.1.4,Win32,143.5132032
,,,,,,p,0.9863,0,188,188,188,1,188,images/pixabay_dog_002744.jpg,images/pixabay_dog_001255.jpg,Eddy,001,2021-08-04_10h38.57.423,Dog face experiment_fully sample_301-600,2021.1.4,Win32,143.5132032
,,,,,,p,1.0687,0,189,189,189,1,189,images/pixabay_dog_002861.jpg,images/pixabay_dog_003357.jpg,Eddy,001,2021-08-04_10h38.57.423,Dog face experiment_fully sample_301-600,2021.1.4,Win32,143.5132032
,,,,,,p,1.0621,0,190,190,190,1,190,images/pixabay_dog_002989.jpg,images/pixabay_dog_001465.jpg,Eddy,001,2021-08-04_10h38.57.423,Dog face experiment_fully sample_301-600,2021.1.4,Win32,143.5132032
,,,,,,p,1.169,0,191,191,191,1,191,images/pixabay_dog_003098.jpg,images/pixabay_dog_000853.jpg,Eddy,001,2021-08-04_10h38.57.423,Dog face experiment_fully sample_301-600,2021.1.4,Win32,143.5132032
,,,,,,p,1.3241,0,192,192,192,1,192,images/pixabay_dog_003305.jpg,images/flickr_dog_000266.jpg,Eddy,001,2021-08-04_10h38.57.423,Dog face experiment_fully sample_301-600,2021.1.4,Win32,143.5132032
,,,,,,p,0.9903,0,193,193,193,1,193,images/pixabay_dog_001255.jpg,images/pixabay_dog_003310.jpg,Eddy,001,2021-08-04_10h38.57.423,Dog face experiment_fully sample_301-600,2021.1.4,Win32,143.5132032
,,,,,,p,1.2124,0,194,194,194,1,194,images/pixabay_dog_000042.jpg,images/pixabay_dog_003604.jpg,Eddy,001,2021-08-04_10h38.57.423,Dog face experiment_fully sample_301-600,2021.1.4,Win32,143.5132032
,,,,,,p,0.8524,0,195,195,195,1,195,images/pixabay_dog_003727.jpg,images/flickr_dog_000266.jpg,Eddy,001,2021-08-04_10h38.57.423,Dog face experiment_fully sample_301-600,2021.1.4,Win32,143.5132032
,,,,,,p,0.7638,0,196,196,196,1,196,images/pixabay_dog_003727.jpg,images/pixabay_dog_003604.jpg,Eddy,001,2021-08-04_10h38.57.423,Dog face experiment_fully sample_301-600,2021.1.4,Win32,143.5132032
,,,,,,q,0.9911,0,197,197,197,1,197,images/flickr_dog_000019.jpg,images/flickr_dog_000913.jpg,Eddy,001,2021-08-04_10h38.57.423,Dog face experiment_fully sample_301-600,2021.1.4,Win32,143.5132032
,,,,,,p,1.378,0,198,198,198,1,198,images/flickr_dog_000261.jpg,images/flickr_dog_000194.jpg,Eddy,001,2021-08-04_10h38.57.423,Dog face experiment_fully sample_301-600,2021.1.4,Win32,143.5132032
,,,,,,q,1.285,0,199,199,199,1,199,images/pixabay_dog_002282.jpg,images/pixabay_dog_003604.jpg,Eddy,001,2021-08-04_10h38.57.423,Dog face experiment_fully sample_301-600,2021.1.4,Win32,143.5132032
,,,,,,p,0.9309,0,200,200,200,1,200,images/flickr_dog_000201.jpg,images/pixabay_dog_003357.jpg,Eddy,001,2021-08-04_10h38.57.423,Dog face experiment_fully sample_301-600,2021.1.4,Win32,143.5132032
,,,,,,p,0.7715,0,201,201,201,1,201,images/flickr_dog_000201.jpg,images/pixabay_dog_002282.jpg,Eddy,001,2021-08-04_10h38.57.423,Dog face experiment_fully sample_301-600,2021.1.4,Win32,143.5132032
,,,,,,p,0.994,0,202,202,202,1,202,images/pixabay_dog_001465.jpg,images/flickr_dog_000194.jpg,Eddy,001,2021-08-04_10h38.57.423,Dog face experiment_fully sample_301-600,2021.1.4,Win32,143.5132032
,,,,,,q,1.9609,0,203,203,203,1,203,images/pixabay_dog_002282.jpg,images/pixabay_dog_002793.jpg,Eddy,001,2021-08-04_10h38.57.423,Dog face experiment_fully sample_301-600,2021.1.4,Win32,143.5132032
,,,,,,q,0.799,0,204,204,204,1,204,images/pixabay_dog_000825.jpg,images/flickr_dog_000913.jpg,Eddy,001,2021-08-04_10h38.57.423,Dog face experiment_fully sample_301-600,2021.1.4,Win32,143.5132032
,,,,,,q,2.2365,0,205,205,205,1,205,images/pixabay_dog_003238.jpg,images/pixabay_dog_000853.jpg,Eddy,001,2021-08-04_10h38.57.423,Dog face experiment_fully sample_301-600,2021.1.4,Win32,143.5132032
,,,,,,p,1.1335,0,206,206,206,1,206,images/pixabay_dog_000952.jpg,images/pixabay_dog_003357.jpg,Eddy,001,2021-08-04_10h38.57.423,Dog face experiment_fully sample_301-600,2021.1.4,Win32,143.5132032
,,,,,,q,1.0524,0,207,207,207,1,207,images/pixabay_dog_002899.jpg,images/flickr_dog_000083.jpg,Eddy,001,2021-08-04_10h38.57.423,Dog face experiment_fully sample_301-600,2021.1.4,Win32,143.5132032
,,,,,,p,2.7506,0,208,208,208,1,208,images/flickr_dog_000932.jpg,images/pixabay_dog_001524.jpg,Eddy,001,2021-08-04_10h38.57.423,Dog face experiment_fully sample_301-600,2021.1.4,Win32,143.5132032
,,,,,,p,0.8206,0,209,209,209,1,209,images/pixabay_dog_000952.jpg,images/flickr_dog_000194.jpg,Eddy,001,2021-08-04_10h38.57.423,Dog face experiment_fully sample_301-600,2021.1.4,Win32,143.5132032
,,,,,,q,1.2393,0,210,210,210,1,210,images/pixabay_dog_003310.jpg,images/flickr_dog_000913.jpg,Eddy,001,2021-08-04_10h38.57.423,Dog face experiment_fully sample_301-600,2021.1.4,Win32,143.5132032
,,,,,,q,2.3921,0,211,211,211,1,211,images/pixabay_dog_001712.jpg,images/pixabay_dog_002989.jpg,Eddy,001,2021-08-04_10h38.57.423,Dog face experiment_fully sample_301-600,2021.1.4,Win32,143.5132032
,,,,,,p,1.0774,0,212,212,212,1,212,images/flickr_dog_000019.jpg,images/pixabay_dog_001524.jpg,Eddy,001,2021-08-04_10h38.57.423,Dog face experiment_fully sample_301-600,2021.1.4,Win32,143.5132032
,,,,,,q,4.1699,0,213,213,213,1,213,images/pixabay_dog_000744.jpg,images/pixabay_dog_002744.jpg,Eddy,001,2021-08-04_10h38.57.423,Dog face experiment_fully sample_301-600,2021.1.4,Win32,143.5132032
,,,,,,p,0.7591,0,214,214,214,1,214,images/pixabay_dog_003238.jpg,images/pixabay_dog_003604.jpg,Eddy,001,2021-08-04_10h38.57.423,Dog face experiment_fully sample_301-600,2021.1.4,Win32,143.5132032
,,,,,,p,1.3156,0,215,215,215,1,215,images/pixabay_dog_003310.jpg,images/flickr_dog_000194.jpg,Eddy,001,2021-08-04_10h38.57.423,Dog face experiment_fully sample_301-600,2021.1.4,Win32,143.5132032
,,,,,,q,1.4207,0,216,216,216,1,216,images/flickr_dog_000932.jpg,images/pixabay_dog_002989.jpg,Eddy,001,2021-08-04_10h38.57.423,Dog face experiment_fully sample_301-600,2021.1.4,Win32,143.5132032
,,,,,,p,0.7105,0,217,217,217,1,217,images/pixabay_dog_000042.jpg,images/pixabay_dog_003829.jpg,Eddy,001,2021-08-04_10h38.57.423,Dog face experiment_fully sample_301-600,2021.1.4,Win32,143.5132032
,,,,,,p,0.7846,0,218,218,218,1,218,images/flickr_dog_000019.jpg,images/flickr_dog_000201.jpg,Eddy,001,2021-08-04_10h38.57.423,Dog face experiment_fully sample_301-600,2021.1.4,Win32,143.5132032
,,,,,,p,0.9862,0,219,219,219,1,219,images/flickr_dog_000261.jpg,images/pixabay_dog_000805.jpg,Eddy,001,2021-08-04_10h38.57.423,Dog face experiment_fully sample_301-600,2021.1.4,Win32,143.5132032
,,,,,,q,0.9555,0,220,220,220,1,220,images/pixabay_dog_002360.jpg,images/pixabay_dog_001712.jpg,Eddy,001,2021-08-04_10h38.57.423,Dog face experiment_fully sample_301-600,2021.1.4,Win32,143.5132032
,,,,,,p,0.8472,0,221,221,221,1,221,images/pixabay_dog_003238.jpg,images/pixabay_dog_003310.jpg,Eddy,001,2021-08-04_10h38.57.423,Dog face experiment_fully sample_301-600,2021.1.4,Win32,143.5132032
,,,,,,q,0.875,0,222,222,222,1,222,images/pixabay_dog_002282.jpg,images/pixabay_dog_003357.jpg,Eddy,001,2021-08-04_10h38.57.423,Dog face experiment_fully sample_301-600,2021.1.4,Win32,143.5132032
,,,,,,q,3.3777,0,223,223,223,1,223,images/pixabay_dog_002268.jpg,images/flickr_dog_000019.jpg,Eddy,001,2021-08-04_10h38.57.423,Dog face experiment_fully sample_301-600,2021.1.4,Win32,143.5132032
,,,,,,q,1.1555,0,224,224,224,1,224,images/pixabay_dog_003238.jpg,images/pixabay_dog_000952.jpg,Eddy,001,2021-08-04_10h38.57.423,Dog face experiment_fully sample_301-600,2021.1.4,Win32,143.5132032
,,,,,,p,1.0334,0,225,225,225,1,225,images/pixabay_dog_002899.jpg,images/pixabay_dog_002360.jpg,Eddy,001,2021-08-04_10h38.57.423,Dog face experiment_fully sample_301-600,2021.1.4,Win32,143.5132032
,,,,,,p,0.9332,0,226,226,226,1,226,images/flickr_dog_000083.jpg,images/pixabay_dog_001524.jpg,Eddy,001,2021-08-04_10h38.57.423,Dog face experiment_fully sample_301-600,2021.1.4,Win32,143.5132032
,,,,,,p,0.8471,0,227,227,227,1,227,images/pixabay_dog_001150.jpg,images/pixabay_dog_003305.jpg,Eddy,001,2021-08-04_10h38.57.423,Dog face experiment_fully sample_301-600,2021.1.4,Win32,143.5132032
,,,,,,q,1.1531,0,228,228,228,1,228,images/pixabay_dog_002360.jpg,images/pixabay_dog_003357.jpg,Eddy,001,2021-08-04_10h38.57.423,Dog face experiment_fully sample_301-600,2021.1.4,Win32,143.5132032
,,,,,,q,3.0242,0,229,229,229,1,229,images/pixabay_dog_003971.jpg,images/flickr_dog_000261.jpg,Eddy,001,2021-08-04_10h38.57.423,Dog face experiment_fully sample_301-600,2021.1.4,Win32,143.5132032
,,,,,,p,1.2914,0,230,230,230,1,230,images/flickr_dog_000232.jpg,images/pixabay_dog_002649.jpg,Eddy,001,2021-08-04_10h38.57.423,Dog face experiment_fully sample_301-600,2021.1.4,Win32,143.5132032
,,,,,,p,1.3334,0,231,231,231,1,231,images/pixabay_dog_001712.jpg,images/pixabay_dog_002793.jpg,Eddy,001,2021-08-04_10h38.57.423,Dog face experiment_fully sample_301-600,2021.1.4,Win32,143.5132032
,,,,,,q,0.8684,0,232,232,232,1,232,images/pixabay_dog_003305.jpg,images/pixabay_dog_003098.jpg,Eddy,001,2021-08-04_10h38.57.423,Dog face experiment_fully sample_301-600,2021.1.4,Win32,143.5132032
,,,,,,q,4.7094,0,233,233,233,1,233,images/pixabay_dog_000744.jpg,images/flickr_dog_000913.jpg,Eddy,001,2021-08-04_10h38.57.423,Dog face experiment_fully sample_301-600,2021.1.4,Win32,143.5132032
,,,,,,p,0.832,0,234,234,234,1,234,images/pixabay_dog_003859.jpg,images/flickr_dog_001107.jpg,Eddy,001,2021-08-04_10h38.57.423,Dog face experiment_fully sample_301-600,2021.1.4,Win32,143.5132032
,,,,,,q,1.1533,0,235,235,235,1,235,images/flickr_dog_000232.jpg,images/pixabay_dog_001960.jpg,Eddy,001,2021-08-04_10h38.57.423,Dog face experiment_fully sample_301-600,2021.1.4,Win32,143.5132032
,,,,,,q,2.3202,0,236,236,236,1,236,images/pixabay_dog_003305.jpg,images/pixabay_dog_003238.jpg,Eddy,001,2021-08-04_10h38.57.423,Dog face experiment_fully sample_301-600,2021.1.4,Win32,143.5132032
,,,,,,p,0.8414,0,237,237,237,1,237,images/pixabay_dog_003098.jpg,images/pixabay_dog_002596.jpg,Eddy,001,2021-08-04_10h38.57.423,Dog face experiment_fully sample_301-600,2021.1.4,Win32,143.5132032
,,,,,,q,1.9724,0,238,238,238,1,238,images/pixabay_dog_003238.jpg,images/pixabay_dog_002861.jpg,Eddy,001,2021-08-04_10h38.57.423,Dog face experiment_fully sample_301-600,2021.1.4,Win32,143.5132032
,,,,,,q,1.9447,0,239,239,239,1,239,images/pixabay_dog_000952.jpg,images/pixabay_dog_002989.jpg,Eddy,001,2021-08-04_10h38.57.423,Dog face experiment_fully sample_301-600,2021.1.4,Win32,143.5132032
,,,,,,p,0.8677,0,240,240,240,1,240,images/flickr_dog_001079.jpg,images/pixabay_dog_003604.jpg,Eddy,001,2021-08-04_10h38.57.423,Dog face experiment_fully sample_301-600,2021.1.4,Win32,143.5132032
,,,,,,p,0.7666,0,241,241,241,1,241,images/pixabay_dog_003098.jpg,images/flickr_dog_000861.jpg,Eddy,001,2021-08-04_10h38.57.423,Dog face experiment_fully sample_301-600,2021.1.4,Win32,143.5132032
,,,,,,p,1.351,0,242,242,242,1,242,images/pixabay_dog_002899.jpg,images/flickr_dog_000861.jpg,Eddy,001,2021-08-04_10h38.57.423,Dog face experiment_fully sample_301-600,2021.1.4,Win32,143.5132032
,,,,,,p,0.8682,0,243,243,243,1,243,images/flickr_dog_001079.jpg,images/pixabay_dog_002282.jpg,Eddy,001,2021-08-04_10h38.57.423,Dog face experiment_fully sample_301-600,2021.1.4,Win32,143.5132032
,,,,,,q,1.4222,0,244,244,244,1,244,images/pixabay_dog_002360.jpg,images/flickr_dog_000232.jpg,Eddy,001,2021-08-04_10h38.57.423,Dog face experiment_fully sample_301-600,2021.1.4,Win32,143.5132032
,,,,,,q,0.672,0,245,245,245,1,245,images/pixabay_dog_002360.jpg,images/pixabay_dog_003829.jpg,Eddy,001,2021-08-04_10h38.57.423,Dog face experiment_fully sample_301-600,2021.1.4,Win32,143.5132032
,,,,,,p,1.6849,0,246,246,246,1,246,images/pixabay_dog_000853.jpg,images/pixabay_dog_001960.jpg,Eddy,001,2021-08-04_10h38.57.423,Dog face experiment_fully sample_301-600,2021.1.4,Win32,143.5132032
,,,,,,p,1.2057,0,247,247,247,1,247,images/flickr_dog_000566.jpg,images/pixabay_dog_003357.jpg,Eddy,001,2021-08-04_10h38.57.423,Dog face experiment_fully sample_301-600,2021.1.4,Win32,143.5132032
,,,,,,p,0.966,0,248,248,248,1,248,images/pixabay_dog_000805.jpg,images/pixabay_dog_001524.jpg,Eddy,001,2021-08-04_10h38.57.423,Dog face experiment_fully sample_301-600,2021.1.4,Win32,143.5132032
,,,,,,p,1.4449,0,249,249,249,1,249,images/pixabay_dog_001255.jpg,images/pixabay_dog_002649.jpg,Eddy,001,2021-08-04_10h38.57.423,Dog face experiment_fully sample_301-600,2021.1.4,Win32,143.5132032
,,,,,,q,3.2573,0,250,250,250,1,250,images/pixabay_dog_003604.jpg,images/pixabay_dog_002596.jpg,Eddy,001,2021-08-04_10h38.57.423,Dog face experiment_fully sample_301-600,2021.1.4,Win32,143.5132032
,,,,,,q,0.8024,0,251,251,251,1,251,images/flickr_dog_000201.jpg,images/pixabay_dog_001465.jpg,Eddy,001,2021-08-04_10h38.57.423,Dog face experiment_fully sample_301-600,2021.1.4,Win32,143.5132032
,,,,,,q,0.8835,0,252,252,252,1,252,images/flickr_dog_000232.jpg,images/pixabay_dog_002989.jpg,Eddy,001,2021-08-04_10h38.57.423,Dog face experiment_fully sample_301-600,2021.1.4,Win32,143.5132032
,,,,,,p,0.8477,0,253,253,253,1,253,images/pixabay_dog_000042.jpg,images/flickr_dog_001107.jpg,Eddy,001,2021-08-04_10h38.57.423,Dog face experiment_fully sample_301-600,2021.1.4,Win32,143.5132032
,,,,,,q,3.7955,0,254,254,254,1,254,images/pixabay_dog_000744.jpg,images/pixabay_dog_003829.jpg,Eddy,001,2021-08-04_10h38.57.423,Dog face experiment_fully sample_301-600,2021.1.4,Win32,143.5132032
,,,,,,q,0.9387,0,255,255,255,1,255,images/pixabay_dog_000825.jpg,images/pixabay_dog_001465.jpg,Eddy,001,2021-08-04_10h38.57.423,Dog face experiment_fully sample_301-600,2021.1.4,Win32,143.5132032
,,,,,,p,1.7801,0,256,256,256,1,256,images/flickr_dog_000261.jpg,images/pixabay_dog_002360.jpg,Eddy,001,2021-08-04_10h38.57.423,Dog face experiment_fully sample_301-600,2021.1.4,Win32,143.5132032
,,,,,,p,3.5381,0,257,257,257,1,257,images/pixabay_dog_001712.jpg,images/flickr_dog_000083.jpg,Eddy,001,2021-08-04_10h38.57.423,Dog face experiment_fully sample_301-600,2021.1.4,Win32,143.5132032
,,,,,,p,0.8124,0,258,258,258,1,258,images/pixabay_dog_003727.jpg,images/pixabay_dog_002596.jpg,Eddy,001,2021-08-04_10h38.57.423,Dog face experiment_fully sample_301-600,2021.1.4,Win32,143.5132032
,,,,,,p,0.7853,0,259,259,259,1,259,images/pixabay_dog_001255.jpg,images/pixabay_dog_000914.jpg,Eddy,001,2021-08-04_10h38.57.423,Dog face experiment_fully sample_301-600,2021.1.4,Win32,143.5132032
,,,,,,q,0.9178,0,260,260,260,1,260,images/pixabay_dog_000042.jpg,images/pixabay_dog_003971.jpg,Eddy,001,2021-08-04_10h38.57.423,Dog face experiment_fully sample_301-600,2021.1.4,Win32,143.5132032
,,,,,,p,1.1251,0,261,261,261,1,261,images/pixabay_dog_001465.jpg,images/pixabay_dog_001524.jpg,Eddy,001,2021-08-04_10h38.57.423,Dog face experiment_fully sample_301-600,2021.1.4,Win32,143.5132032
,,,,,,q,0.9672,0,262,262,262,1,262,images/pixabay_dog_000042.jpg,images/pixabay_dog_003727.jpg,Eddy,001,2021-08-04_10h38.57.423,Dog face experiment_fully sample_301-600,2021.1.4,Win32,143.5132032
,,,,,,p,1.6533,0,263,263,263,1,263,images/pixabay_dog_002268.jpg,images/pixabay_dog_002744.jpg,Eddy,001,2021-08-04_10h38.57.423,Dog face experiment_fully sample_301-600,2021.1.4,Win32,143.5132032
,,,,,,p,0.9705,0,264,264,264,1,264,images/pixabay_dog_003971.jpg,images/pixabay_dog_001524.jpg,Eddy,001,2021-08-04_10h38.57.423,Dog face experiment_fully sample_301-600,2021.1.4,Win32,143.5132032
,,,,,,q,0.8821,0,265,265,265,1,265,images/pixabay_dog_000914.jpg,images/pixabay_dog_000525.jpg,Eddy,001,2021-08-04_10h38.57.423,Dog face experiment_fully sample_301-600,2021.1.4,Win32,143.5132032
,,,,,,q,0.7935,0,266,266,266,1,266,images/flickr_dog_000861.jpg,images/pixabay_dog_000525.jpg,Eddy,001,2021-08-04_10h38.57.423,Dog face experiment_fully sample_301-600,2021.1.4,Win32,143.5132032
,,,,,,p,0.9746,0,267,267,267,1,267,images/flickr_dog_000083.jpg,images/pixabay_dog_001843.jpg,Eddy,001,2021-08-04_10h38.57.423,Dog face experiment_fully sample_301-600,2021.1.4,Win32,143.5132032
,,,,,,p,2.1463,0,268,268,268,1,268,images/pixabay_dog_001465.jpg,images/flickr_dog_000913.jpg,Eddy,001,2021-08-04_10h38.57.423,Dog face experiment_fully sample_301-600,2021.1.4,Win32,143.5132032
,,,,,,p,0.8671,0,269,269,269,1,269,images/pixabay_dog_002861.jpg,images/flickr_dog_000194.jpg,Eddy,001,2021-08-04_10h38.57.423,Dog face experiment_fully sample_301-600,2021.1.4,Win32,143.5132032
,,,,,,q,0.6801,0,270,270,270,1,270,images/pixabay_dog_002899.jpg,images/pixabay_dog_001255.jpg,Eddy,001,2021-08-04_10h38.57.423,Dog face experiment_fully sample_301-600,2021.1.4,Win32,143.5132032
,,,,,,p,0.7702,0,271,271,271,1,271,images/pixabay_dog_003971.jpg,images/pixabay_dog_003305.jpg,Eddy,001,2021-08-04_10h38.57.423,Dog face experiment_fully sample_301-600,2021.1.4,Win32,143.5132032
,,,,,,p,1.4889,0,272,272,272,1,272,images/pixabay_dog_003971.jpg,images/pixabay_dog_001712.jpg,Eddy,001,2021-08-04_10h38.57.423,Dog face experiment_fully sample_301-600,2021.1.4,Win32,143.5132032
,,,,,,q,0.9657,0,273,273,273,1,273,images/flickr_dog_000861.jpg,images/pixabay_dog_000853.jpg,Eddy,001,2021-08-04_10h38.57.423,Dog face experiment_fully sample_301-600,2021.1.4,Win32,143.5132032
,,,,,,q,1.2913,0,274,274,274,1,274,images/pixabay_dog_000825.jpg,images/pixabay_dog_003859.jpg,Eddy,001,2021-08-04_10h38.57.423,Dog face experiment_fully sample_301-600,2021.1.4,Win32,143.5132032
,,,,,,q,1.1602,0,275,275,275,1,275,images/flickr_dog_000201.jpg,images/pixabay_dog_002596.jpg,Eddy,001,2021-08-04_10h38.57.423,Dog face experiment_fully sample_301-600,2021.1.4,Win32,143.5132032
,,,,,,q,0.9469,0,276,276,276,1,276,images/flickr_dog_000861.jpg,images/pixabay_dog_003238.jpg,Eddy,001,2021-08-04_10h38.57.423,Dog face experiment_fully sample_301-600,2021.1.4,Win32,143.5132032
,,,,,,p,1.2851,0,277,277,277,1,277,images/pixabay_dog_003727.jpg,images/pixabay_dog_001843.jpg,Eddy,001,2021-08-04_10h38.57.423,Dog face experiment_fully sample_301-600,2021.1.4,Win32,143.5132032
,,,,,,q,1.023,0,278,278,278,1,278,images/pixabay_dog_000042.jpg,images/pixabay_dog_003238.jpg,Eddy,001,2021-08-04_10h38.57.423,Dog face experiment_fully sample_301-600,2021.1.4,Win32,143.5132032
,,,,,,p,4.6469,0,279,279,279,1,279,images/flickr_dog_000261.jpg,images/pixabay_dog_002861.jpg,Eddy,001,2021-08-04_10h38.57.423,Dog face experiment_fully sample_301-600,2021.1.4,Win32,143.5132032
,,,,,,p,0.674,0,280,280,280,1,280,images/flickr_dog_000279.jpg,images/pixabay_dog_003310.jpg,Eddy,001,2021-08-04_10h38.57.423,Dog face experiment_fully sample_301-600,2021.1.4,Win32,143.5132032
,,,,,,p,1.0922,0,281,281,281,1,281,images/pixabay_dog_001960.jpg,images/pixabay_dog_001843.jpg,Eddy,001,2021-08-04_10h38.57.423,Dog face experiment_fully sample_301-600,2021.1.4,Win32,143.5132032
,,,,,,q,0.7473,0,282,282,282,1,282,images/pixabay_dog_001150.jpg,images/pixabay_dog_000853.jpg,Eddy,001,2021-08-04_10h38.57.423,Dog face experiment_fully sample_301-600,2021.1.4,Win32,143.5132032
,,,,,,p,0.6876,0,283,283,283,1,283,images/pixabay_dog_003098.jpg,images/flickr_dog_000232.jpg,Eddy,001,2021-08-04_10h38.57.423,Dog face experiment_fully sample_301-600,2021.1.4,Win32,143.5132032
,,,,,,q,1.216,0,284,284,284,1,284,images/pixabay_dog_003305.jpg,images/pixabay_dog_003357.jpg,Eddy,001,2021-08-04_10h38.57.423,Dog face experiment_fully sample_301-600,2021.1.4,Win32,143.5132032
,,,,,,p,0.7358,0,285,285,285,1,285,images/pixabay_dog_001150.jpg,images/pixabay_dog_003604.jpg,Eddy,001,2021-08-04_10h38.57.423,Dog face experiment_fully sample_301-600,2021.1.4,Win32,143.5132032
,,,,,,p,1.1301,0,286,286,286,1,286,images/flickr_dog_000279.jpg,images/pixabay_dog_003357.jpg,Eddy,001,2021-08-04_10h38.57.423,Dog face experiment_fully sample_301-600,2021.1.4,Win32,143.5132032
,,,,,,q,1.0498,0,287,287,287,1,287,images/pixabay_dog_002360.jpg,images/pixabay_dog_001255.jpg,Eddy,001,2021-08-04_10h38.57.423,Dog face experiment_fully sample_301-600,2021.1.4,Win32,143.5132032
,,,,,,q,1.4849,0,288,288,288,1,288,images/flickr_dog_000083.jpg,images/pixabay_dog_000952.jpg,Eddy,001,2021-08-04_10h38.57.423,Dog face experiment_fully sample_301-600,2021.1.4,Win32,143.5132032
,,,,,,p,1.5807,0,289,289,289,1,289,images/flickr_dog_000232.jpg,images/pixabay_dog_001524.jpg,Eddy,001,2021-08-04_10h38.57.423,Dog face experiment_fully sample_301-600,2021.1.4,Win32,143.5132032
,,,,,,p,2.2805,0,290,290,290,1,290,images/pixabay_dog_003727.jpg,images/pixabay_dog_002793.jpg,Eddy,001,2021-08-04_10h38.57.423,Dog face experiment_fully sample_301-600,2021.1.4,Win32,143.5132032
,,,,,,q,1.4247,0,291,291,291,1,291,images/flickr_dog_000019.jpg,images/pixabay_dog_000525.jpg,Eddy,001,2021-08-04_10h38.57.423,Dog face experiment_fully sample_301-600,2021.1.4,Win32,143.5132032
,,,,,,p,1.3761,0,292,292,292,1,292,images/pixabay_dog_003971.jpg,images/flickr_dog_000861.jpg,Eddy,001,2021-08-04_10h38.57.423,Dog face experiment_fully sample_301-600,2021.1.4,Win32,143.5132032
,,,,,,p,1.1701,0,293,293,293,1,293,images/pixabay_dog_002268.jpg,images/flickr_dog_000266.jpg,Eddy,001,2021-08-04_10h38.57.423,Dog face experiment_fully sample_301-600,2021.1.4,Win32,143.5132032
,,,,,,q,0.8387,0,294,294,294,1,294,images/pixabay_dog_000042.jpg,images/pixabay_dog_002989.jpg,Eddy,001,2021-08-04_10h38.57.423,Dog face experiment_fully sample_301-600,2021.1.4,Win32,143.5132032
,,,,,,q,0.863,0,295,295,295,1,295,images/flickr_dog_000861.jpg,images/flickr_dog_000261.jpg,Eddy,001,2021-08-04_10h38.57.423,Dog face experiment_fully sample_301-600,2021.1.4,Win32,143.5132032
,,,,,,q,0.7345,0,296,296,296,1,296,images/flickr_dog_000861.jpg,images/flickr_dog_000083.jpg,Eddy,001,2021-08-04_10h38.57.423,Dog face experiment_fully sample_301-600,2021.1.4,Win32,143.5132032
,,,,,,q,2.0783,0,297,297,297,1,297,images/flickr_dog_000566.jpg,images/pixabay_dog_001960.jpg,Eddy,001,2021-08-04_10h38.57.423,Dog face experiment_fully sample_301-600,2021.1.4,Win32,143.5132032
,,,,,,q,0.7098,0,298,298,298,1,298,images/pixabay_dog_002282.jpg,images/flickr_dog_001107.jpg,Eddy,001,2021-08-04_10h38.57.423,Dog face experiment_fully sample_301-600,2021.1.4,Win32,143.5132032
,,,,,,p,1.3281,0,299,299,299,1,299,images/flickr_dog_000279.jpg,images/pixabay_dog_000825.jpg,Eddy,001,2021-08-04_10h38.57.423,Dog face experiment_fully sample_301-600,2021.1.4,Win32,143.5132032
