key_resp.keys,key_resp.rt,key_resp_2.keys,key_resp_2.rt,key_resp_3.keys,key_resp_3.rt,key_resp_4.keys,key_resp_4.rt,trials.thisRepN,trials.thisTrialN,trials.thisN,trials.thisIndex,trials.ran,trail_nums,img1,img2,participant,session,date,expName,psychopyVersion,OS,frameRate
space,1.7878,space,0.8119,space,0.4814,q,3.5404,0,0,0,0,1,0,images/pixabay_dog_003305.jpg,images/pixabay_dog_000825.jpg,Yun-Jen Tsai,001,2021-08-03_21h06.24.338,Dog face experiment_fully sample_901-1225,2021.1.4,Win32,58.87201225
,,,,,,p,1.8267,0,1,1,1,1,1,images/pixabay_dog_002268.jpg,images/pixabay_dog_003357.jpg,Yun-Jen Tsai,001,2021-08-03_21h06.24.338,Dog face experiment_fully sample_901-1225,2021.1.4,Win32,58.87201225
,,,,,,q,1.0214,0,2,2,2,1,2,images/flickr_dog_001079.jpg,images/pixabay_dog_002744.jpg,Yun-Jen Tsai,001,2021-08-03_21h06.24.338,Dog face experiment_fully sample_901-1225,2021.1.4,Win32,58.87201225
,,,,,,p,1.0391,0,3,3,3,1,3,images/flickr_dog_001079.jpg,images/pixabay_dog_003357.jpg,Yun-Jen Tsai,001,2021-08-03_21h06.24.338,Dog face experiment_fully sample_901-1225,2021.1.4,Win32,58.87201225
,,,,,,p,1.6794,0,4,4,4,1,4,images/flickr_dog_001079.jpg,images/flickr_dog_000083.jpg,Yun-Jen Tsai,001,2021-08-03_21h06.24.338,Dog face experiment_fully sample_901-1225,2021.1.4,Win32,58.87201225
,,,,,,p,0.8385,0,5,5,5,1,5,images/flickr_dog_000019.jpg,images/flickr_dog_000279.jpg,Yun-Jen Tsai,001,2021-08-03_21h06.24.338,Dog face experiment_fully sample_901-1225,2021.1.4,Win32,58.87201225
,,,,,,q,1.387,0,6,6,6,1,6,images/pixabay_dog_002861.jpg,images/flickr_dog_000913.jpg,Yun-Jen Tsai,001,2021-08-03_21h06.24.338,Dog face experiment_fully sample_901-1225,2021.1.4,Win32,58.87201225
,,,,,,p,0.7886,0,7,7,7,1,7,images/flickr_dog_001079.jpg,images/pixabay_dog_002989.jpg,Yun-Jen Tsai,001,2021-08-03_21h06.24.338,Dog face experiment_fully sample_901-1225,2021.1.4,Win32,58.87201225
,,,,,,q,1.0202,0,8,8,8,1,8,images/flickr_dog_000861.jpg,images/flickr_dog_000194.jpg,Yun-Jen Tsai,001,2021-08-03_21h06.24.338,Dog face experiment_fully sample_901-1225,2021.1.4,Win32,58.87201225
,,,,,,q,1.4082,0,9,9,9,1,9,images/flickr_dog_000266.jpg,images/pixabay_dog_003357.jpg,Yun-Jen Tsai,001,2021-08-03_21h06.24.338,Dog face experiment_fully sample_901-1225,2021.1.4,Win32,58.87201225
,,,,,,p,1.3558,0,10,10,10,1,10,images/pixabay_dog_003727.jpg,images/flickr_dog_000913.jpg,Yun-Jen Tsai,001,2021-08-03_21h06.24.338,Dog face experiment_fully sample_901-1225,2021.1.4,Win32,58.87201225
,,,,,,p,0.9087,0,11,11,11,1,11,images/pixabay_dog_001465.jpg,images/pixabay_dog_003357.jpg,Yun-Jen Tsai,001,2021-08-03_21h06.24.338,Dog face experiment_fully sample_901-1225,2021.1.4,Win32,58.87201225
,,,,,,p,1.2216,0,12,12,12,1,12,images/pixabay_dog_002649.jpg,images/flickr_dog_001107.jpg,Yun-Jen Tsai,001,2021-08-03_21h06.24.338,Dog face experiment_fully sample_901-1225,2021.1.4,Win32,58.87201225
,,,,,,q,0.8874,0,13,13,13,1,13,images/pixabay_dog_003727.jpg,images/pixabay_dog_000853.jpg,Yun-Jen Tsai,001,2021-08-03_21h06.24.338,Dog face experiment_fully sample_901-1225,2021.1.4,Win32,58.87201225
,,,,,,p,0.8556,0,14,14,14,1,14,images/pixabay_dog_000042.jpg,images/flickr_dog_000566.jpg,Yun-Jen Tsai,001,2021-08-03_21h06.24.338,Dog face experiment_fully sample_901-1225,2021.1.4,Win32,58.87201225
,,,,,,q,0.8419,0,15,15,15,1,15,images/flickr_dog_000566.jpg,images/pixabay_dog_001465.jpg,Yun-Jen Tsai,001,2021-08-03_21h06.24.338,Dog face experiment_fully sample_901-1225,2021.1.4,Win32,58.87201225
,,,,,,p,1.0091,0,16,16,16,1,16,images/pixabay_dog_002268.jpg,images/pixabay_dog_001960.jpg,Yun-Jen Tsai,001,2021-08-03_21h06.24.338,Dog face experiment_fully sample_901-1225,2021.1.4,Win32,58.87201225
,,,,,,p,0.6549,0,17,17,17,1,17,images/pixabay_dog_002268.jpg,images/pixabay_dog_000914.jpg,Yun-Jen Tsai,001,2021-08-03_21h06.24.338,Dog face experiment_fully sample_901-1225,2021.1.4,Win32,58.87201225
,,,,,,p,1.0201,0,18,18,18,1,18,images/flickr_dog_000932.jpg,images/pixabay_dog_003604.jpg,Yun-Jen Tsai,001,2021-08-03_21h06.24.338,Dog face experiment_fully sample_901-1225,2021.1.4,Win32,58.87201225
,,,,,,p,0.8048,0,19,19,19,1,19,images/flickr_dog_001079.jpg,images/flickr_dog_000261.jpg,Yun-Jen Tsai,001,2021-08-03_21h06.24.338,Dog face experiment_fully sample_901-1225,2021.1.4,Win32,58.87201225
,,,,,,p,1.1874,0,20,20,20,1,20,images/flickr_dog_000201.jpg,images/flickr_dog_000266.jpg,Yun-Jen Tsai,001,2021-08-03_21h06.24.338,Dog face experiment_fully sample_901-1225,2021.1.4,Win32,58.87201225
,,,,,,q,1.4046,0,21,21,21,1,21,images/pixabay_dog_002899.jpg,images/flickr_dog_000201.jpg,Yun-Jen Tsai,001,2021-08-03_21h06.24.338,Dog face experiment_fully sample_901-1225,2021.1.4,Win32,58.87201225
,,,,,,q,1.4879,0,22,22,22,1,22,images/flickr_dog_000201.jpg,images/pixabay_dog_003727.jpg,Yun-Jen Tsai,001,2021-08-03_21h06.24.338,Dog face experiment_fully sample_901-1225,2021.1.4,Win32,58.87201225
,,,,,,p,1.4385,0,23,23,23,1,23,images/flickr_dog_000083.jpg,images/pixabay_dog_002649.jpg,Yun-Jen Tsai,001,2021-08-03_21h06.24.338,Dog face experiment_fully sample_901-1225,2021.1.4,Win32,58.87201225
,,,,,,p,0.9049,0,24,24,24,1,24,images/pixabay_dog_003859.jpg,images/pixabay_dog_001524.jpg,Yun-Jen Tsai,001,2021-08-03_21h06.24.338,Dog face experiment_fully sample_901-1225,2021.1.4,Win32,58.87201225
,,,,,,q,0.7617,0,25,25,25,1,25,images/pixabay_dog_002899.jpg,images/pixabay_dog_003727.jpg,Yun-Jen Tsai,001,2021-08-03_21h06.24.338,Dog face experiment_fully sample_901-1225,2021.1.4,Win32,58.87201225
,,,,,,q,0.9776,0,26,26,26,1,26,images/pixabay_dog_002268.jpg,images/flickr_dog_000194.jpg,Yun-Jen Tsai,001,2021-08-03_21h06.24.338,Dog face experiment_fully sample_901-1225,2021.1.4,Win32,58.87201225
,,,,,,q,0.8919,0,27,27,27,1,27,images/pixabay_dog_002282.jpg,images/pixabay_dog_000805.jpg,Yun-Jen Tsai,001,2021-08-03_21h06.24.338,Dog face experiment_fully sample_901-1225,2021.1.4,Win32,58.87201225
,,,,,,q,1.1209,0,28,28,28,1,28,images/pixabay_dog_000042.jpg,images/pixabay_dog_001960.jpg,Yun-Jen Tsai,001,2021-08-03_21h06.24.338,Dog face experiment_fully sample_901-1225,2021.1.4,Win32,58.87201225
,,,,,,q,0.8235,0,29,29,29,1,29,images/pixabay_dog_002360.jpg,images/flickr_dog_000201.jpg,Yun-Jen Tsai,001,2021-08-03_21h06.24.338,Dog face experiment_fully sample_901-1225,2021.1.4,Win32,58.87201225
,,,,,,q,1.4629,0,30,30,30,1,30,images/pixabay_dog_002268.jpg,images/pixabay_dog_003238.jpg,Yun-Jen Tsai,001,2021-08-03_21h06.24.338,Dog face experiment_fully sample_901-1225,2021.1.4,Win32,58.87201225
,,,,,,q,0.823,0,31,31,31,1,31,images/pixabay_dog_003727.jpg,images/pixabay_dog_000805.jpg,Yun-Jen Tsai,001,2021-08-03_21h06.24.338,Dog face experiment_fully sample_901-1225,2021.1.4,Win32,58.87201225
,,,,,,p,1.1232,0,32,32,32,1,32,images/pixabay_dog_002899.jpg,images/pixabay_dog_002268.jpg,Yun-Jen Tsai,001,2021-08-03_21h06.24.338,Dog face experiment_fully sample_901-1225,2021.1.4,Win32,58.87201225
,,,,,,p,0.8069,0,33,33,33,1,33,images/pixabay_dog_000744.jpg,images/pixabay_dog_002793.jpg,Yun-Jen Tsai,001,2021-08-03_21h06.24.338,Dog face experiment_fully sample_901-1225,2021.1.4,Win32,58.87201225
,,,,,,q,0.8465,0,34,34,34,1,34,images/pixabay_dog_003727.jpg,images/pixabay_dog_002649.jpg,Yun-Jen Tsai,001,2021-08-03_21h06.24.338,Dog face experiment_fully sample_901-1225,2021.1.4,Win32,58.87201225
,,,,,,q,0.7079,0,35,35,35,1,35,images/flickr_dog_000861.jpg,images/pixabay_dog_000805.jpg,Yun-Jen Tsai,001,2021-08-03_21h06.24.338,Dog face experiment_fully sample_901-1225,2021.1.4,Win32,58.87201225
,,,,,,p,0.7079,0,36,36,36,1,36,images/flickr_dog_000932.jpg,images/pixabay_dog_000932.jpg,Yun-Jen Tsai,001,2021-08-03_21h06.24.338,Dog face experiment_fully sample_901-1225,2021.1.4,Win32,58.87201225
,,,,,,p,1.0504,0,37,37,37,1,37,images/pixabay_dog_002744.jpg,images/pixabay_dog_000914.jpg,Yun-Jen Tsai,001,2021-08-03_21h06.24.338,Dog face experiment_fully sample_901-1225,2021.1.4,Win32,58.87201225
,,,,,,p,0.8722,0,38,38,38,1,38,images/flickr_dog_000861.jpg,images/pixabay_dog_002360.jpg,Yun-Jen Tsai,001,2021-08-03_21h06.24.338,Dog face experiment_fully sample_901-1225,2021.1.4,Win32,58.87201225
,,,,,,p,1.0882,0,39,39,39,1,39,images/pixabay_dog_002268.jpg,images/flickr_dog_001107.jpg,Yun-Jen Tsai,001,2021-08-03_21h06.24.338,Dog face experiment_fully sample_901-1225,2021.1.4,Win32,58.87201225
,,,,,,q,1.4896,0,40,40,40,1,40,images/pixabay_dog_003305.jpg,images/pixabay_dog_002793.jpg,Yun-Jen Tsai,001,2021-08-03_21h06.24.338,Dog face experiment_fully sample_901-1225,2021.1.4,Win32,58.87201225
,,,,,,p,0.9765,0,41,41,41,1,41,images/flickr_dog_000932.jpg,images/pixabay_dog_002282.jpg,Yun-Jen Tsai,001,2021-08-03_21h06.24.338,Dog face experiment_fully sample_901-1225,2021.1.4,Win32,58.87201225
,,,,,,q,2.0049,0,42,42,42,1,42,images/pixabay_dog_002861.jpg,images/pixabay_dog_000914.jpg,Yun-Jen Tsai,001,2021-08-03_21h06.24.338,Dog face experiment_fully sample_901-1225,2021.1.4,Win32,58.87201225
,,,,,,p,1.8415,0,43,43,43,1,43,images/flickr_dog_000861.jpg,images/pixabay_dog_002793.jpg,Yun-Jen Tsai,001,2021-08-03_21h06.24.338,Dog face experiment_fully sample_901-1225,2021.1.4,Win32,58.87201225
,,,,,,q,1.6255,0,44,44,44,1,44,images/pixabay_dog_003604.jpg,images/pixabay_dog_001960.jpg,Yun-Jen Tsai,001,2021-08-03_21h06.24.338,Dog face experiment_fully sample_901-1225,2021.1.4,Win32,58.87201225
,,,,,,p,0.8946,0,45,45,45,1,45,images/flickr_dog_000083.jpg,images/flickr_dog_000266.jpg,Yun-Jen Tsai,001,2021-08-03_21h06.24.338,Dog face experiment_fully sample_901-1225,2021.1.4,Win32,58.87201225
,,,,,,q,1.0462,0,46,46,46,1,46,images/pixabay_dog_002899.jpg,images/flickr_dog_000232.jpg,Yun-Jen Tsai,001,2021-08-03_21h06.24.338,Dog face experiment_fully sample_901-1225,2021.1.4,Win32,58.87201225
,,,,,,q,1.2594,0,47,47,47,1,47,images/flickr_dog_000261.jpg,images/flickr_dog_000201.jpg,Yun-Jen Tsai,001,2021-08-03_21h06.24.338,Dog face experiment_fully sample_901-1225,2021.1.4,Win32,58.87201225
,,,,,,q,1.4056,0,48,48,48,1,48,images/pixabay_dog_002649.jpg,images/pixabay_dog_000825.jpg,Yun-Jen Tsai,001,2021-08-03_21h06.24.338,Dog face experiment_fully sample_901-1225,2021.1.4,Win32,58.87201225
,,,,,,q,0.842,0,49,49,49,1,49,images/flickr_dog_001079.jpg,images/pixabay_dog_003859.jpg,Yun-Jen Tsai,001,2021-08-03_21h06.24.338,Dog face experiment_fully sample_901-1225,2021.1.4,Win32,58.87201225
,,,,,,p,0.8544,0,50,50,50,1,50,images/pixabay_dog_000805.jpg,images/pixabay_dog_002793.jpg,Yun-Jen Tsai,001,2021-08-03_21h06.24.338,Dog face experiment_fully sample_901-1225,2021.1.4,Win32,58.87201225
,,,,,,p,1.0047,0,51,51,51,1,51,images/pixabay_dog_000952.jpg,images/flickr_dog_001107.jpg,Yun-Jen Tsai,001,2021-08-03_21h06.24.338,Dog face experiment_fully sample_901-1225,2021.1.4,Win32,58.87201225
,,,,,,p,1.4262,0,52,52,52,1,52,images/flickr_dog_000861.jpg,images/pixabay_dog_002649.jpg,Yun-Jen Tsai,001,2021-08-03_21h06.24.338,Dog face experiment_fully sample_901-1225,2021.1.4,Win32,58.87201225
,,,,,,p,0.8876,0,53,53,53,1,53,images/pixabay_dog_001150.jpg,images/pixabay_dog_002596.jpg,Yun-Jen Tsai,001,2021-08-03_21h06.24.338,Dog face experiment_fully sample_901-1225,2021.1.4,Win32,58.87201225
,,,,,,p,0.9433,0,54,54,54,1,54,images/flickr_dog_000201.jpg,images/pixabay_dog_000525.jpg,Yun-Jen Tsai,001,2021-08-03_21h06.24.338,Dog face experiment_fully sample_901-1225,2021.1.4,Win32,58.87201225
,,,,,,q,0.7548,0,55,55,55,1,55,images/pixabay_dog_003971.jpg,images/flickr_dog_001107.jpg,Yun-Jen Tsai,001,2021-08-03_21h06.24.338,Dog face experiment_fully sample_901-1225,2021.1.4,Win32,58.87201225
,,,,,,q,1.3209,0,56,56,56,1,56,images/pixabay_dog_003971.jpg,images/pixabay_dog_002596.jpg,Yun-Jen Tsai,001,2021-08-03_21h06.24.338,Dog face experiment_fully sample_901-1225,2021.1.4,Win32,58.87201225
,,,,,,q,0.7714,0,57,57,57,1,57,images/pixabay_dog_003604.jpg,images/pixabay_dog_000525.jpg,Yun-Jen Tsai,001,2021-08-03_21h06.24.338,Dog face experiment_fully sample_901-1225,2021.1.4,Win32,58.87201225
,,,,,,p,1.3546,0,58,58,58,1,58,images/flickr_dog_000913.jpg,images/pixabay_dog_001524.jpg,Yun-Jen Tsai,001,2021-08-03_21h06.24.338,Dog face experiment_fully sample_901-1225,2021.1.4,Win32,58.87201225
,,,,,,p,0.7104,0,59,59,59,1,59,images/pixabay_dog_001255.jpg,images/pixabay_dog_001712.jpg,Yun-Jen Tsai,001,2021-08-03_21h06.24.338,Dog face experiment_fully sample_901-1225,2021.1.4,Win32,58.87201225
,,,,,,p,1.4281,0,60,60,60,1,60,images/flickr_dog_001079.jpg,images/pixabay_dog_003238.jpg,Yun-Jen Tsai,001,2021-08-03_21h06.24.338,Dog face experiment_fully sample_901-1225,2021.1.4,Win32,58.87201225
,,,,,,p,1.8706,0,61,61,61,1,61,images/pixabay_dog_003238.jpg,images/pixabay_dog_001255.jpg,Yun-Jen Tsai,001,2021-08-03_21h06.24.338,Dog face experiment_fully sample_901-1225,2021.1.4,Win32,58.87201225
,,,,,,p,1.6597,0,62,62,62,1,62,images/pixabay_dog_000042.jpg,images/flickr_dog_000932.jpg,Yun-Jen Tsai,001,2021-08-03_21h06.24.338,Dog face experiment_fully sample_901-1225,2021.1.4,Win32,58.87201225
,,,,,,p,0.9624,0,63,63,63,1,63,images/flickr_dog_000932.jpg,images/flickr_dog_000279.jpg,Yun-Jen Tsai,001,2021-08-03_21h06.24.338,Dog face experiment_fully sample_901-1225,2021.1.4,Win32,58.87201225
,,,,,,q,1.0226,0,64,64,64,1,64,images/pixabay_dog_003971.jpg,images/pixabay_dog_003238.jpg,Yun-Jen Tsai,001,2021-08-03_21h06.24.338,Dog face experiment_fully sample_901-1225,2021.1.4,Win32,58.87201225
,,,,,,p,0.7402,0,65,65,65,1,65,images/pixabay_dog_000042.jpg,images/pixabay_dog_003098.jpg,Yun-Jen Tsai,001,2021-08-03_21h06.24.338,Dog face experiment_fully sample_901-1225,2021.1.4,Win32,58.87201225
,,,,,,q,1.8395,0,66,66,66,1,66,images/pixabay_dog_003971.jpg,images/pixabay_dog_002268.jpg,Yun-Jen Tsai,001,2021-08-03_21h06.24.338,Dog face experiment_fully sample_901-1225,2021.1.4,Win32,58.87201225
,,,,,,p,1.5381,0,67,67,67,1,67,images/pixabay_dog_003971.jpg,images/flickr_dog_000932.jpg,Yun-Jen Tsai,001,2021-08-03_21h06.24.338,Dog face experiment_fully sample_901-1225,2021.1.4,Win32,58.87201225
,,,,,,q,1.5369,0,68,68,68,1,68,images/flickr_dog_000266.jpg,images/pixabay_dog_001465.jpg,Yun-Jen Tsai,001,2021-08-03_21h06.24.338,Dog face experiment_fully sample_901-1225,2021.1.4,Win32,58.87201225
,,,,,,p,1.2876,0,69,69,69,1,69,images/flickr_dog_000932.jpg,images/pixabay_dog_003357.jpg,Yun-Jen Tsai,001,2021-08-03_21h06.24.338,Dog face experiment_fully sample_901-1225,2021.1.4,Win32,58.87201225
,,,,,,p,1.5388,0,70,70,70,1,70,images/pixabay_dog_001150.jpg,images/flickr_dog_001107.jpg,Yun-Jen Tsai,001,2021-08-03_21h06.24.338,Dog face experiment_fully sample_901-1225,2021.1.4,Win32,58.87201225
,,,,,,q,0.722,0,71,71,71,1,71,images/flickr_dog_000266.jpg,images/pixabay_dog_001843.jpg,Yun-Jen Tsai,001,2021-08-03_21h06.24.338,Dog face experiment_fully sample_901-1225,2021.1.4,Win32,58.87201225
,,,,,,q,1.9122,0,72,72,72,1,72,images/pixabay_dog_002360.jpg,images/pixabay_dog_000525.jpg,Yun-Jen Tsai,001,2021-08-03_21h06.24.338,Dog face experiment_fully sample_901-1225,2021.1.4,Win32,58.87201225
,,,,,,p,0.9702,0,73,73,73,1,73,images/flickr_dog_000861.jpg,images/pixabay_dog_002282.jpg,Yun-Jen Tsai,001,2021-08-03_21h06.24.338,Dog face experiment_fully sample_901-1225,2021.1.4,Win32,58.87201225
,,,,,,p,1.2547,0,74,74,74,1,74,images/pixabay_dog_000932.jpg,images/pixabay_dog_001524.jpg,Yun-Jen Tsai,001,2021-08-03_21h06.24.338,Dog face experiment_fully sample_901-1225,2021.1.4,Win32,58.87201225
,,,,,,q,0.9048,0,75,75,75,1,75,images/flickr_dog_000201.jpg,images/flickr_dog_000232.jpg,Yun-Jen Tsai,001,2021-08-03_21h06.24.338,Dog face experiment_fully sample_901-1225,2021.1.4,Win32,58.87201225
,,,,,,p,0.7794,0,76,76,76,1,76,images/pixabay_dog_000042.jpg,images/flickr_dog_000913.jpg,Yun-Jen Tsai,001,2021-08-03_21h06.24.338,Dog face experiment_fully sample_901-1225,2021.1.4,Win32,58.87201225
,,,,,,p,0.9875,0,77,77,77,1,77,images/pixabay_dog_003310.jpg,images/pixabay_dog_001524.jpg,Yun-Jen Tsai,001,2021-08-03_21h06.24.338,Dog face experiment_fully sample_901-1225,2021.1.4,Win32,58.87201225
,,,,,,p,0.8375,0,78,78,78,1,78,images/pixabay_dog_001150.jpg,images/pixabay_dog_003357.jpg,Yun-Jen Tsai,001,2021-08-03_21h06.24.338,Dog face experiment_fully sample_901-1225,2021.1.4,Win32,58.87201225
,,,,,,q,1.1226,0,79,79,79,1,79,images/pixabay_dog_002282.jpg,images/flickr_dog_000194.jpg,Yun-Jen Tsai,001,2021-08-03_21h06.24.338,Dog face experiment_fully sample_901-1225,2021.1.4,Win32,58.87201225
,,,,,,q,0.9987,0,80,80,80,1,80,images/flickr_dog_000566.jpg,images/flickr_dog_000201.jpg,Yun-Jen Tsai,001,2021-08-03_21h06.24.338,Dog face experiment_fully sample_901-1225,2021.1.4,Win32,58.87201225
,,,,,,p,1.0953,0,81,81,81,1,81,images/flickr_dog_001079.jpg,images/pixabay_dog_001465.jpg,Yun-Jen Tsai,001,2021-08-03_21h06.24.338,Dog face experiment_fully sample_901-1225,2021.1.4,Win32,58.87201225
,,,,,,p,1.4216,0,82,82,82,1,82,images/pixabay_dog_002596.jpg,images/pixabay_dog_003357.jpg,Yun-Jen Tsai,001,2021-08-03_21h06.24.338,Dog face experiment_fully sample_901-1225,2021.1.4,Win32,58.87201225
,,,,,,q,1.6544,0,83,83,83,1,83,images/flickr_dog_000566.jpg,images/flickr_dog_000279.jpg,Yun-Jen Tsai,001,2021-08-03_21h06.24.338,Dog face experiment_fully sample_901-1225,2021.1.4,Win32,58.87201225
,,,,,,q,1.8433,0,84,84,84,1,84,images/pixabay_dog_002793.jpg,images/pixabay_dog_001960.jpg,Yun-Jen Tsai,001,2021-08-03_21h06.24.338,Dog face experiment_fully sample_901-1225,2021.1.4,Win32,58.87201225
,,,,,,p,0.721,0,85,85,85,1,85,images/pixabay_dog_003310.jpg,images/pixabay_dog_000932.jpg,Yun-Jen Tsai,001,2021-08-03_21h06.24.338,Dog face experiment_fully sample_901-1225,2021.1.4,Win32,58.87201225
,,,,,,p,0.7962,0,86,86,86,1,86,images/pixabay_dog_001150.jpg,images/pixabay_dog_001255.jpg,Yun-Jen Tsai,001,2021-08-03_21h06.24.338,Dog face experiment_fully sample_901-1225,2021.1.4,Win32,58.87201225
,,,,,,p,0.9213,0,87,87,87,1,87,images/flickr_dog_000019.jpg,images/pixabay_dog_003727.jpg,Yun-Jen Tsai,001,2021-08-03_21h06.24.338,Dog face experiment_fully sample_901-1225,2021.1.4,Win32,58.87201225
,,,,,,p,0.7549,0,88,88,88,1,88,images/pixabay_dog_000744.jpg,images/pixabay_dog_001255.jpg,Yun-Jen Tsai,001,2021-08-03_21h06.24.338,Dog face experiment_fully sample_901-1225,2021.1.4,Win32,58.87201225
,,,,,,p,0.7599,0,89,89,89,1,89,images/flickr_dog_000232.jpg,images/pixabay_dog_003357.jpg,Yun-Jen Tsai,001,2021-08-03_21h06.24.338,Dog face experiment_fully sample_901-1225,2021.1.4,Win32,58.87201225
,,,,,,p,2.0876,0,90,90,90,1,90,images/pixabay_dog_000042.jpg,images/pixabay_dog_001150.jpg,Yun-Jen Tsai,001,2021-08-03_21h06.24.338,Dog face experiment_fully sample_901-1225,2021.1.4,Win32,58.87201225
,,,,,,p,0.9213,0,91,91,91,1,91,images/pixabay_dog_002744.jpg,images/pixabay_dog_000525.jpg,Yun-Jen Tsai,001,2021-08-03_21h06.24.338,Dog face experiment_fully sample_901-1225,2021.1.4,Win32,58.87201225
,,,,,,q,0.974,0,92,92,92,1,92,images/pixabay_dog_000914.jpg,images/pixabay_dog_000805.jpg,Yun-Jen Tsai,001,2021-08-03_21h06.24.338,Dog face experiment_fully sample_901-1225,2021.1.4,Win32,58.87201225
,,,,,,p,1.2879,0,93,93,93,1,93,images/pixabay_dog_003098.jpg,images/pixabay_dog_001712.jpg,Yun-Jen Tsai,001,2021-08-03_21h06.24.338,Dog face experiment_fully sample_901-1225,2021.1.4,Win32,58.87201225
,,,,,,p,1.1885,0,94,94,94,1,94,images/pixabay_dog_002861.jpg,images/flickr_dog_000266.jpg,Yun-Jen Tsai,001,2021-08-03_21h06.24.338,Dog face experiment_fully sample_901-1225,2021.1.4,Win32,58.87201225
,,,,,,q,1.4253,0,95,95,95,1,95,images/flickr_dog_000261.jpg,images/flickr_dog_000019.jpg,Yun-Jen Tsai,001,2021-08-03_21h06.24.338,Dog face experiment_fully sample_901-1225,2021.1.4,Win32,58.87201225
,,,,,,q,1.2717,0,96,96,96,1,96,images/pixabay_dog_001255.jpg,images/pixabay_dog_003357.jpg,Yun-Jen Tsai,001,2021-08-03_21h06.24.338,Dog face experiment_fully sample_901-1225,2021.1.4,Win32,58.87201225
,,,,,,p,1.0101,0,97,97,97,1,97,images/flickr_dog_000194.jpg,images/pixabay_dog_001843.jpg,Yun-Jen Tsai,001,2021-08-03_21h06.24.338,Dog face experiment_fully sample_901-1225,2021.1.4,Win32,58.87201225
,,,,,,q,0.6875,0,98,98,98,1,98,images/pixabay_dog_002360.jpg,images/flickr_dog_000266.jpg,Yun-Jen Tsai,001,2021-08-03_21h06.24.338,Dog face experiment_fully sample_901-1225,2021.1.4,Win32,58.87201225
,,,,,,p,0.7567,0,99,99,99,1,99,images/pixabay_dog_000805.jpg,images/flickr_dog_000913.jpg,Yun-Jen Tsai,001,2021-08-03_21h06.24.338,Dog face experiment_fully sample_901-1225,2021.1.4,Win32,58.87201225
,,,,,,q,1.2931,0,100,100,100,1,100,images/pixabay_dog_002899.jpg,images/pixabay_dog_001843.jpg,Yun-Jen Tsai,001,2021-08-03_21h06.24.338,Dog face experiment_fully sample_901-1225,2021.1.4,Win32,58.87201225
,,,,,,p,0.9875,0,101,101,101,1,101,images/pixabay_dog_003098.jpg,images/pixabay_dog_002360.jpg,Yun-Jen Tsai,001,2021-08-03_21h06.24.338,Dog face experiment_fully sample_901-1225,2021.1.4,Win32,58.87201225
,,,,,,q,0.8776,0,102,102,102,1,102,images/pixabay_dog_000952.jpg,images/flickr_dog_000913.jpg,Yun-Jen Tsai,001,2021-08-03_21h06.24.338,Dog face experiment_fully sample_901-1225,2021.1.4,Win32,58.87201225
,,,,,,q,0.7218,0,103,103,103,1,103,images/pixabay_dog_001255.jpg,images/flickr_dog_000913.jpg,Yun-Jen Tsai,001,2021-08-03_21h06.24.338,Dog face experiment_fully sample_901-1225,2021.1.4,Win32,58.87201225
,,,,,,p,0.7707,0,104,104,104,1,104,images/pixabay_dog_002360.jpg,images/pixabay_dog_002282.jpg,Yun-Jen Tsai,001,2021-08-03_21h06.24.338,Dog face experiment_fully sample_901-1225,2021.1.4,Win32,58.87201225
,,,,,,q,0.6282,0,105,105,105,1,105,images/pixabay_dog_003098.jpg,images/pixabay_dog_002744.jpg,Yun-Jen Tsai,001,2021-08-03_21h06.24.338,Dog face experiment_fully sample_901-1225,2021.1.4,Win32,58.87201225
,,,,,,p,0.6917,0,106,106,106,1,106,images/flickr_dog_000019.jpg,images/pixabay_dog_002596.jpg,Yun-Jen Tsai,001,2021-08-03_21h06.24.338,Dog face experiment_fully sample_901-1225,2021.1.4,Win32,58.87201225
,,,,,,p,1.0295,0,107,107,107,1,107,images/flickr_dog_000232.jpg,images/flickr_dog_001107.jpg,Yun-Jen Tsai,001,2021-08-03_21h06.24.338,Dog face experiment_fully sample_901-1225,2021.1.4,Win32,58.87201225
,,,,,,p,0.9932,0,108,108,108,1,108,images/pixabay_dog_003829.jpg,images/flickr_dog_001107.jpg,Yun-Jen Tsai,001,2021-08-03_21h06.24.338,Dog face experiment_fully sample_901-1225,2021.1.4,Win32,58.87201225
,,,,,,p,0.9225,0,109,109,109,1,109,images/pixabay_dog_000914.jpg,images/pixabay_dog_002793.jpg,Yun-Jen Tsai,001,2021-08-03_21h06.24.338,Dog face experiment_fully sample_901-1225,2021.1.4,Win32,58.87201225
,,,,,,p,0.8556,0,110,110,110,1,110,images/flickr_dog_000019.jpg,images/pixabay_dog_002793.jpg,Yun-Jen Tsai,001,2021-08-03_21h06.24.338,Dog face experiment_fully sample_901-1225,2021.1.4,Win32,58.87201225
,,,,,,p,0.9803,0,111,111,111,1,111,images/pixabay_dog_000805.jpg,images/pixabay_dog_000952.jpg,Yun-Jen Tsai,001,2021-08-03_21h06.24.338,Dog face experiment_fully sample_901-1225,2021.1.4,Win32,58.87201225
,,,,,,p,0.6785,0,112,112,112,1,112,images/flickr_dog_000019.jpg,images/pixabay_dog_003357.jpg,Yun-Jen Tsai,001,2021-08-03_21h06.24.338,Dog face experiment_fully sample_901-1225,2021.1.4,Win32,58.87201225
,,,,,,p,0.7624,0,113,113,113,1,113,images/pixabay_dog_000805.jpg,images/flickr_dog_000194.jpg,Yun-Jen Tsai,001,2021-08-03_21h06.24.338,Dog face experiment_fully sample_901-1225,2021.1.4,Win32,58.87201225
,,,,,,p,0.7382,0,114,114,114,1,114,images/pixabay_dog_000744.jpg,images/flickr_dog_000201.jpg,Yun-Jen Tsai,001,2021-08-03_21h06.24.338,Dog face experiment_fully sample_901-1225,2021.1.4,Win32,58.87201225
,,,,,,p,0.72,0,115,115,115,1,115,images/pixabay_dog_003238.jpg,images/flickr_dog_001107.jpg,Yun-Jen Tsai,001,2021-08-03_21h06.24.338,Dog face experiment_fully sample_901-1225,2021.1.4,Win32,58.87201225
,,,,,,q,0.8708,0,116,116,116,1,116,images/pixabay_dog_001150.jpg,images/pixabay_dog_000525.jpg,Yun-Jen Tsai,001,2021-08-03_21h06.24.338,Dog face experiment_fully sample_901-1225,2021.1.4,Win32,58.87201225
,,,,,,p,1.1475,0,117,117,117,1,117,images/flickr_dog_000083.jpg,images/pixabay_dog_003859.jpg,Yun-Jen Tsai,001,2021-08-03_21h06.24.338,Dog face experiment_fully sample_901-1225,2021.1.4,Win32,58.87201225
,,,,,,p,1.025,0,118,118,118,1,118,images/pixabay_dog_002649.jpg,images/pixabay_dog_002989.jpg,Yun-Jen Tsai,001,2021-08-03_21h06.24.338,Dog face experiment_fully sample_901-1225,2021.1.4,Win32,58.87201225
,,,,,,p,0.8719,0,119,119,119,1,119,images/pixabay_dog_002649.jpg,images/pixabay_dog_003604.jpg,Yun-Jen Tsai,001,2021-08-03_21h06.24.338,Dog face experiment_fully sample_901-1225,2021.1.4,Win32,58.87201225
,,,,,,p,1.6551,0,120,120,120,1,120,images/pixabay_dog_003098.jpg,images/pixabay_dog_001524.jpg,Yun-Jen Tsai,001,2021-08-03_21h06.24.338,Dog face experiment_fully sample_901-1225,2021.1.4,Win32,58.87201225
,,,,,,p,0.897,0,121,121,121,1,121,images/pixabay_dog_003098.jpg,images/pixabay_dog_003604.jpg,Yun-Jen Tsai,001,2021-08-03_21h06.24.338,Dog face experiment_fully sample_901-1225,2021.1.4,Win32,58.87201225
,,,,,,q,1.3442,0,122,122,122,1,122,images/pixabay_dog_003310.jpg,images/pixabay_dog_000825.jpg,Yun-Jen Tsai,001,2021-08-03_21h06.24.338,Dog face experiment_fully sample_901-1225,2021.1.4,Win32,58.87201225
,,,,,,q,1.0273,0,123,123,123,1,123,images/pixabay_dog_002861.jpg,images/pixabay_dog_003310.jpg,Yun-Jen Tsai,001,2021-08-03_21h06.24.338,Dog face experiment_fully sample_901-1225,2021.1.4,Win32,58.87201225
,,,,,,p,1.7624,0,124,124,124,1,124,images/pixabay_dog_003098.jpg,images/pixabay_dog_000914.jpg,Yun-Jen Tsai,001,2021-08-03_21h06.24.338,Dog face experiment_fully sample_901-1225,2021.1.4,Win32,58.87201225
,,,,,,p,0.7277,0,125,125,125,1,125,images/pixabay_dog_002360.jpg,images/pixabay_dog_003727.jpg,Yun-Jen Tsai,001,2021-08-03_21h06.24.338,Dog face experiment_fully sample_901-1225,2021.1.4,Win32,58.87201225
,,,,,,q,1.157,0,126,126,126,1,126,images/pixabay_dog_002899.jpg,images/pixabay_dog_000932.jpg,Yun-Jen Tsai,001,2021-08-03_21h06.24.338,Dog face experiment_fully sample_901-1225,2021.1.4,Win32,58.87201225
,,,,,,p,0.874,0,127,127,127,1,127,images/flickr_dog_001079.jpg,images/pixabay_dog_000744.jpg,Yun-Jen Tsai,001,2021-08-03_21h06.24.338,Dog face experiment_fully sample_901-1225,2021.1.4,Win32,58.87201225
,,,,,,q,0.7228,0,128,128,128,1,128,images/pixabay_dog_002360.jpg,images/pixabay_dog_002744.jpg,Yun-Jen Tsai,001,2021-08-03_21h06.24.338,Dog face experiment_fully sample_901-1225,2021.1.4,Win32,58.87201225
,,,,,,p,0.7049,0,129,129,129,1,129,images/flickr_dog_000201.jpg,images/pixabay_dog_003604.jpg,Yun-Jen Tsai,001,2021-08-03_21h06.24.338,Dog face experiment_fully sample_901-1225,2021.1.4,Win32,58.87201225
,,,,,,p,1.3115,0,130,130,130,1,130,images/pixabay_dog_003238.jpg,images/flickr_dog_000279.jpg,Yun-Jen Tsai,001,2021-08-03_21h06.24.338,Dog face experiment_fully sample_901-1225,2021.1.4,Win32,58.87201225
,,,,,,q,0.8567,0,131,131,131,1,131,images/flickr_dog_000279.jpg,images/pixabay_dog_001465.jpg,Yun-Jen Tsai,001,2021-08-03_21h06.24.338,Dog face experiment_fully sample_901-1225,2021.1.4,Win32,58.87201225
,,,,,,p,0.8543,0,132,132,132,1,132,images/pixabay_dog_000744.jpg,images/pixabay_dog_000825.jpg,Yun-Jen Tsai,001,2021-08-03_21h06.24.338,Dog face experiment_fully sample_901-1225,2021.1.4,Win32,58.87201225
,,,,,,q,0.6722,0,133,133,133,1,133,images/flickr_dog_000566.jpg,images/pixabay_dog_002596.jpg,Yun-Jen Tsai,001,2021-08-03_21h06.24.338,Dog face experiment_fully sample_901-1225,2021.1.4,Win32,58.87201225
,,,,,,p,1.195,0,134,134,134,1,134,images/pixabay_dog_001255.jpg,images/flickr_dog_000083.jpg,Yun-Jen Tsai,001,2021-08-03_21h06.24.338,Dog face experiment_fully sample_901-1225,2021.1.4,Win32,58.87201225
,,,,,,p,1.5209,0,135,135,135,1,135,images/flickr_dog_000083.jpg,images/pixabay_dog_003604.jpg,Yun-Jen Tsai,001,2021-08-03_21h06.24.338,Dog face experiment_fully sample_901-1225,2021.1.4,Win32,58.87201225
,,,,,,q,0.8066,0,136,136,136,1,136,images/pixabay_dog_003305.jpg,images/flickr_dog_001107.jpg,Yun-Jen Tsai,001,2021-08-03_21h06.24.338,Dog face experiment_fully sample_901-1225,2021.1.4,Win32,58.87201225
,,,,,,p,3.1044,0,137,137,137,1,137,images/pixabay_dog_000853.jpg,images/flickr_dog_001107.jpg,Yun-Jen Tsai,001,2021-08-03_21h06.24.338,Dog face experiment_fully sample_901-1225,2021.1.4,Win32,58.87201225
,,,,,,q,1.5734,0,138,138,138,1,138,images/pixabay_dog_003098.jpg,images/pixabay_dog_001960.jpg,Yun-Jen Tsai,001,2021-08-03_21h06.24.338,Dog face experiment_fully sample_901-1225,2021.1.4,Win32,58.87201225
,,,,,,q,2.8887,0,139,139,139,1,139,images/pixabay_dog_001960.jpg,images/pixabay_dog_001465.jpg,Yun-Jen Tsai,001,2021-08-03_21h06.24.338,Dog face experiment_fully sample_901-1225,2021.1.4,Win32,58.87201225
,,,,,,q,2.3214,0,140,140,140,1,140,images/flickr_dog_000861.jpg,images/pixabay_dog_003727.jpg,Yun-Jen Tsai,001,2021-08-03_21h06.24.338,Dog face experiment_fully sample_901-1225,2021.1.4,Win32,58.87201225
,,,,,,q,1.1377,0,141,141,141,1,141,images/pixabay_dog_002861.jpg,images/pixabay_dog_001960.jpg,Yun-Jen Tsai,001,2021-08-03_21h06.24.338,Dog face experiment_fully sample_901-1225,2021.1.4,Win32,58.87201225
,,,,,,p,3.3372,0,142,142,142,1,142,images/pixabay_dog_000042.jpg,images/flickr_dog_000083.jpg,Yun-Jen Tsai,001,2021-08-03_21h06.24.338,Dog face experiment_fully sample_901-1225,2021.1.4,Win32,58.87201225
,,,,,,q,1.2453,0,143,143,143,1,143,images/pixabay_dog_001255.jpg,images/pixabay_dog_003604.jpg,Yun-Jen Tsai,001,2021-08-03_21h06.24.338,Dog face experiment_fully sample_901-1225,2021.1.4,Win32,58.87201225
,,,,,,q,0.9045,0,144,144,144,1,144,images/flickr_dog_000201.jpg,images/pixabay_dog_000805.jpg,Yun-Jen Tsai,001,2021-08-03_21h06.24.338,Dog face experiment_fully sample_901-1225,2021.1.4,Win32,58.87201225
,,,,,,p,1.004,0,145,145,145,1,145,images/flickr_dog_001079.jpg,images/pixabay_dog_002360.jpg,Yun-Jen Tsai,001,2021-08-03_21h06.24.338,Dog face experiment_fully sample_901-1225,2021.1.4,Win32,58.87201225
,,,,,,p,2.604,0,146,146,146,1,146,images/pixabay_dog_003098.jpg,images/pixabay_dog_002268.jpg,Yun-Jen Tsai,001,2021-08-03_21h06.24.338,Dog face experiment_fully sample_901-1225,2021.1.4,Win32,58.87201225
,,,,,,p,1.3545,0,147,147,147,1,147,images/pixabay_dog_000825.jpg,images/pixabay_dog_002596.jpg,Yun-Jen Tsai,001,2021-08-03_21h06.24.338,Dog face experiment_fully sample_901-1225,2021.1.4,Win32,58.87201225
,,,,,,q,1.0044,0,148,148,148,1,148,images/pixabay_dog_003971.jpg,images/pixabay_dog_001150.jpg,Yun-Jen Tsai,001,2021-08-03_21h06.24.338,Dog face experiment_fully sample_901-1225,2021.1.4,Win32,58.87201225
,,,,,,q,0.8288,0,149,149,149,1,149,images/pixabay_dog_002282.jpg,images/flickr_dog_000913.jpg,Yun-Jen Tsai,001,2021-08-03_21h06.24.338,Dog face experiment_fully sample_901-1225,2021.1.4,Win32,58.87201225
,,,,,,p,1.1546,0,150,150,150,1,150,images/flickr_dog_000019.jpg,images/pixabay_dog_000853.jpg,Yun-Jen Tsai,001,2021-08-03_21h06.24.338,Dog face experiment_fully sample_901-1225,2021.1.4,Win32,58.87201225
,,,,,,p,0.8712,0,151,151,151,1,151,images/pixabay_dog_003238.jpg,images/pixabay_dog_001524.jpg,Yun-Jen Tsai,001,2021-08-03_21h06.24.338,Dog face experiment_fully sample_901-1225,2021.1.4,Win32,58.87201225
,,,,,,p,0.6237,0,152,152,152,1,152,images/flickr_dog_000932.jpg,images/flickr_dog_001107.jpg,Yun-Jen Tsai,001,2021-08-03_21h06.24.338,Dog face experiment_fully sample_901-1225,2021.1.4,Win32,58.87201225
,,,,,,p,0.7881,0,153,153,153,1,153,images/flickr_dog_001079.jpg,images/pixabay_dog_000853.jpg,Yun-Jen Tsai,001,2021-08-03_21h06.24.338,Dog face experiment_fully sample_901-1225,2021.1.4,Win32,58.87201225
,,,,,,p,1.0726,0,154,154,154,1,154,images/pixabay_dog_002744.jpg,images/flickr_dog_000201.jpg,Yun-Jen Tsai,001,2021-08-03_21h06.24.338,Dog face experiment_fully sample_901-1225,2021.1.4,Win32,58.87201225
,,,,,,p,0.7712,0,155,155,155,1,155,images/pixabay_dog_000525.jpg,images/pixabay_dog_003357.jpg,Yun-Jen Tsai,001,2021-08-03_21h06.24.338,Dog face experiment_fully sample_901-1225,2021.1.4,Win32,58.87201225
,,,,,,q,0.6462,0,156,156,156,1,156,images/pixabay_dog_003971.jpg,images/pixabay_dog_000952.jpg,Yun-Jen Tsai,001,2021-08-03_21h06.24.338,Dog face experiment_fully sample_901-1225,2021.1.4,Win32,58.87201225
,,,,,,p,0.8049,0,157,157,157,1,157,images/pixabay_dog_003305.jpg,images/pixabay_dog_003604.jpg,Yun-Jen Tsai,001,2021-08-03_21h06.24.338,Dog face experiment_fully sample_901-1225,2021.1.4,Win32,58.87201225
,,,,,,p,1.0716,0,158,158,158,1,158,images/pixabay_dog_001150.jpg,images/pixabay_dog_000914.jpg,Yun-Jen Tsai,001,2021-08-03_21h06.24.338,Dog face experiment_fully sample_901-1225,2021.1.4,Win32,58.87201225
,,,,,,q,0.7049,0,159,159,159,1,159,images/flickr_dog_000261.jpg,images/pixabay_dog_000525.jpg,Yun-Jen Tsai,001,2021-08-03_21h06.24.338,Dog face experiment_fully sample_901-1225,2021.1.4,Win32,58.87201225
,,,,,,q,2.1115,0,160,160,160,1,160,images/pixabay_dog_000744.jpg,images/pixabay_dog_003310.jpg,Yun-Jen Tsai,001,2021-08-03_21h06.24.338,Dog face experiment_fully sample_901-1225,2021.1.4,Win32,58.87201225
,,,,,,p,0.5882,0,161,161,161,1,161,images/pixabay_dog_000744.jpg,images/flickr_dog_000083.jpg,Yun-Jen Tsai,001,2021-08-03_21h06.24.338,Dog face experiment_fully sample_901-1225,2021.1.4,Win32,58.87201225
,,,,,,p,0.9889,0,162,162,162,1,162,images/flickr_dog_000266.jpg,images/pixabay_dog_002793.jpg,Yun-Jen Tsai,001,2021-08-03_21h06.24.338,Dog face experiment_fully sample_901-1225,2021.1.4,Win32,58.87201225
,,,,,,p,2.0045,0,163,163,163,1,163,images/pixabay_dog_003098.jpg,images/pixabay_dog_001465.jpg,Yun-Jen Tsai,001,2021-08-03_21h06.24.338,Dog face experiment_fully sample_901-1225,2021.1.4,Win32,58.87201225
,,,,,,q,0.7437,0,164,164,164,1,164,images/pixabay_dog_002360.jpg,images/flickr_dog_000913.jpg,Yun-Jen Tsai,001,2021-08-03_21h06.24.338,Dog face experiment_fully sample_901-1225,2021.1.4,Win32,58.87201225
,,,,,,p,1.8789,0,165,165,165,1,165,images/pixabay_dog_001150.jpg,images/pixabay_dog_001465.jpg,Yun-Jen Tsai,001,2021-08-03_21h06.24.338,Dog face experiment_fully sample_901-1225,2021.1.4,Win32,58.87201225
,,,,,,p,1.4713,0,166,166,166,1,166,images/pixabay_dog_002989.jpg,images/pixabay_dog_003859.jpg,Yun-Jen Tsai,001,2021-08-03_21h06.24.338,Dog face experiment_fully sample_901-1225,2021.1.4,Win32,58.87201225
,,,,,,p,4.3454,0,167,167,167,1,167,images/pixabay_dog_002268.jpg,images/pixabay_dog_002861.jpg,Yun-Jen Tsai,001,2021-08-03_21h06.24.338,Dog face experiment_fully sample_901-1225,2021.1.4,Win32,58.87201225
,,,,,,q,0.8232,0,168,168,168,1,168,images/flickr_dog_000566.jpg,images/pixabay_dog_000744.jpg,Yun-Jen Tsai,001,2021-08-03_21h06.24.338,Dog face experiment_fully sample_901-1225,2021.1.4,Win32,58.87201225
,,,,,,q,2.1055,0,169,169,169,1,169,images/flickr_dog_001107.jpg,images/pixabay_dog_003357.jpg,Yun-Jen Tsai,001,2021-08-03_21h06.24.338,Dog face experiment_fully sample_901-1225,2021.1.4,Win32,58.87201225
,,,,,,q,1.3553,0,170,170,170,1,170,images/pixabay_dog_000805.jpg,images/pixabay_dog_000932.jpg,Yun-Jen Tsai,001,2021-08-03_21h06.24.338,Dog face experiment_fully sample_901-1225,2021.1.4,Win32,58.87201225
,,,,,,p,0.8377,0,171,171,171,1,171,images/flickr_dog_001079.jpg,images/flickr_dog_000279.jpg,Yun-Jen Tsai,001,2021-08-03_21h06.24.338,Dog face experiment_fully sample_901-1225,2021.1.4,Win32,58.87201225
,,,,,,q,0.9211,0,172,172,172,1,172,images/pixabay_dog_003971.jpg,images/pixabay_dog_001843.jpg,Yun-Jen Tsai,001,2021-08-03_21h06.24.338,Dog face experiment_fully sample_901-1225,2021.1.4,Win32,58.87201225
,,,,,,q,1.1644,0,173,173,173,1,173,images/flickr_dog_000932.jpg,images/flickr_dog_000083.jpg,Yun-Jen Tsai,001,2021-08-03_21h06.24.338,Dog face experiment_fully sample_901-1225,2021.1.4,Win32,58.87201225
,,,,,,p,1.044,0,174,174,174,1,174,images/pixabay_dog_002268.jpg,images/flickr_dog_000201.jpg,Yun-Jen Tsai,001,2021-08-03_21h06.24.338,Dog face experiment_fully sample_901-1225,2021.1.4,Win32,58.87201225
,,,,,,p,1.0227,0,175,175,175,1,175,images/flickr_dog_000932.jpg,images/pixabay_dog_003727.jpg,Yun-Jen Tsai,001,2021-08-03_21h06.24.338,Dog face experiment_fully sample_901-1225,2021.1.4,Win32,58.87201225
,,,,,,p,1.1068,0,176,176,176,1,176,images/pixabay_dog_000932.jpg,images/pixabay_dog_002596.jpg,Yun-Jen Tsai,001,2021-08-03_21h06.24.338,Dog face experiment_fully sample_901-1225,2021.1.4,Win32,58.87201225
,,,,,,q,1.0402,0,177,177,177,1,177,images/flickr_dog_000261.jpg,images/pixabay_dog_003727.jpg,Yun-Jen Tsai,001,2021-08-03_21h06.24.338,Dog face experiment_fully sample_901-1225,2021.1.4,Win32,58.87201225
,,,,,,p,1.8711,0,178,178,178,1,178,images/flickr_dog_000932.jpg,images/pixabay_dog_000525.jpg,Yun-Jen Tsai,001,2021-08-03_21h06.24.338,Dog face experiment_fully sample_901-1225,2021.1.4,Win32,58.87201225
,,,,,,p,0.7379,0,179,179,179,1,179,images/flickr_dog_000232.jpg,images/pixabay_dog_003310.jpg,Yun-Jen Tsai,001,2021-08-03_21h06.24.338,Dog face experiment_fully sample_901-1225,2021.1.4,Win32,58.87201225
,,,,,,p,1.0399,0,180,180,180,1,180,images/flickr_dog_001079.jpg,images/flickr_dog_000932.jpg,Yun-Jen Tsai,001,2021-08-03_21h06.24.338,Dog face experiment_fully sample_901-1225,2021.1.4,Win32,58.87201225
,,,,,,p,1.3547,0,181,181,181,1,181,images/pixabay_dog_003971.jpg,images/pixabay_dog_001255.jpg,Yun-Jen Tsai,001,2021-08-03_21h06.24.338,Dog face experiment_fully sample_901-1225,2021.1.4,Win32,58.87201225
,,,,,,p,1.3304,0,182,182,182,1,182,images/pixabay_dog_000853.jpg,images/pixabay_dog_001843.jpg,Yun-Jen Tsai,001,2021-08-03_21h06.24.338,Dog face experiment_fully sample_901-1225,2021.1.4,Win32,58.87201225
,,,,,,q,1.7556,0,183,183,183,1,183,images/pixabay_dog_000744.jpg,images/pixabay_dog_000853.jpg,Yun-Jen Tsai,001,2021-08-03_21h06.24.338,Dog face experiment_fully sample_901-1225,2021.1.4,Win32,58.87201225
,,,,,,p,0.7459,0,184,184,184,1,184,images/pixabay_dog_000042.jpg,images/pixabay_dog_002744.jpg,Yun-Jen Tsai,001,2021-08-03_21h06.24.338,Dog face experiment_fully sample_901-1225,2021.1.4,Win32,58.87201225
,,,,,,p,1.8108,0,185,185,185,1,185,images/pixabay_dog_000042.jpg,images/pixabay_dog_000914.jpg,Yun-Jen Tsai,001,2021-08-03_21h06.24.338,Dog face experiment_fully sample_901-1225,2021.1.4,Win32,58.87201225
,,,,,,q,0.6552,0,186,186,186,1,186,images/pixabay_dog_002360.jpg,images/pixabay_dog_000805.jpg,Yun-Jen Tsai,001,2021-08-03_21h06.24.338,Dog face experiment_fully sample_901-1225,2021.1.4,Win32,58.87201225
,,,,,,p,1.7128,0,187,187,187,1,187,images/pixabay_dog_000042.jpg,images/flickr_dog_000019.jpg,Yun-Jen Tsai,001,2021-08-03_21h06.24.338,Dog face experiment_fully sample_901-1225,2021.1.4,Win32,58.87201225
,,,,,,p,1.8712,0,188,188,188,1,188,images/flickr_dog_000232.jpg,images/pixabay_dog_000952.jpg,Yun-Jen Tsai,001,2021-08-03_21h06.24.338,Dog face experiment_fully sample_901-1225,2021.1.4,Win32,58.87201225
,,,,,,q,0.6742,0,189,189,189,1,189,images/pixabay_dog_001255.jpg,images/pixabay_dog_001843.jpg,Yun-Jen Tsai,001,2021-08-03_21h06.24.338,Dog face experiment_fully sample_901-1225,2021.1.4,Win32,58.87201225
,,,,,,p,0.9048,0,190,190,190,1,190,images/pixabay_dog_002861.jpg,images/pixabay_dog_002282.jpg,Yun-Jen Tsai,001,2021-08-03_21h06.24.338,Dog face experiment_fully sample_901-1225,2021.1.4,Win32,58.87201225
,,,,,,q,1.2323,0,191,191,191,1,191,images/pixabay_dog_002899.jpg,images/pixabay_dog_002649.jpg,Yun-Jen Tsai,001,2021-08-03_21h06.24.338,Dog face experiment_fully sample_901-1225,2021.1.4,Win32,58.87201225
,,,,,,q,1.0519,0,192,192,192,1,192,images/flickr_dog_000261.jpg,images/flickr_dog_000913.jpg,Yun-Jen Tsai,001,2021-08-03_21h06.24.338,Dog face experiment_fully sample_901-1225,2021.1.4,Win32,58.87201225
,,,,,,q,1.6883,0,193,193,193,1,193,images/flickr_dog_000261.jpg,images/pixabay_dog_000952.jpg,Yun-Jen Tsai,001,2021-08-03_21h06.24.338,Dog face experiment_fully sample_901-1225,2021.1.4,Win32,58.87201225
,,,,,,p,1.4047,0,194,194,194,1,194,images/flickr_dog_001079.jpg,images/flickr_dog_000019.jpg,Yun-Jen Tsai,001,2021-08-03_21h06.24.338,Dog face experiment_fully sample_901-1225,2021.1.4,Win32,58.87201225
,,,,,,q,0.9249,0,195,195,195,1,195,images/pixabay_dog_002282.jpg,images/pixabay_dog_000952.jpg,Yun-Jen Tsai,001,2021-08-03_21h06.24.338,Dog face experiment_fully sample_901-1225,2021.1.4,Win32,58.87201225
,,,,,,q,1.5069,0,196,196,196,1,196,images/pixabay_dog_002899.jpg,images/flickr_dog_000913.jpg,Yun-Jen Tsai,001,2021-08-03_21h06.24.338,Dog face experiment_fully sample_901-1225,2021.1.4,Win32,58.87201225
,,,,,,q,2.5106,0,197,197,197,1,197,images/pixabay_dog_001150.jpg,images/pixabay_dog_000805.jpg,Yun-Jen Tsai,001,2021-08-03_21h06.24.338,Dog face experiment_fully sample_901-1225,2021.1.4,Win32,58.87201225
,,,,,,p,0.5744,0,198,198,198,1,198,images/pixabay_dog_001150.jpg,images/pixabay_dog_001712.jpg,Yun-Jen Tsai,001,2021-08-03_21h06.24.338,Dog face experiment_fully sample_901-1225,2021.1.4,Win32,58.87201225
,,,,,,p,0.8442,0,199,199,199,1,199,images/pixabay_dog_001150.jpg,images/pixabay_dog_002649.jpg,Yun-Jen Tsai,001,2021-08-03_21h06.24.338,Dog face experiment_fully sample_901-1225,2021.1.4,Win32,58.87201225
,,,,,,q,0.8049,0,200,200,200,1,200,images/pixabay_dog_003727.jpg,images/pixabay_dog_000932.jpg,Yun-Jen Tsai,001,2021-08-03_21h06.24.338,Dog face experiment_fully sample_901-1225,2021.1.4,Win32,58.87201225
,,,,,,q,1.7791,0,201,201,201,1,201,images/pixabay_dog_003310.jpg,images/pixabay_dog_002989.jpg,Yun-Jen Tsai,001,2021-08-03_21h06.24.338,Dog face experiment_fully sample_901-1225,2021.1.4,Win32,58.87201225
,,,,,,p,0.9383,0,202,202,202,1,202,images/pixabay_dog_002268.jpg,images/pixabay_dog_002649.jpg,Yun-Jen Tsai,001,2021-08-03_21h06.24.338,Dog face experiment_fully sample_901-1225,2021.1.4,Win32,58.87201225
,,,,,,q,0.7892,0,203,203,203,1,203,images/pixabay_dog_003727.jpg,images/pixabay_dog_001465.jpg,Yun-Jen Tsai,001,2021-08-03_21h06.24.338,Dog face experiment_fully sample_901-1225,2021.1.4,Win32,58.87201225
,,,,,,p,1.1378,0,204,204,204,1,204,images/pixabay_dog_003310.jpg,images/pixabay_dog_001960.jpg,Yun-Jen Tsai,001,2021-08-03_21h06.24.338,Dog face experiment_fully sample_901-1225,2021.1.4,Win32,58.87201225
,,,,,,p,1.0598,0,205,205,205,1,205,images/pixabay_dog_002744.jpg,images/pixabay_dog_001465.jpg,Yun-Jen Tsai,001,2021-08-03_21h06.24.338,Dog face experiment_fully sample_901-1225,2021.1.4,Win32,58.87201225
,,,,,,p,0.7551,0,206,206,206,1,206,images/pixabay_dog_003098.jpg,images/flickr_dog_000261.jpg,Yun-Jen Tsai,001,2021-08-03_21h06.24.338,Dog face experiment_fully sample_901-1225,2021.1.4,Win32,58.87201225
,,,,,,q,1.0548,0,207,207,207,1,207,images/pixabay_dog_002268.jpg,images/pixabay_dog_003310.jpg,Yun-Jen Tsai,001,2021-08-03_21h06.24.338,Dog face experiment_fully sample_901-1225,2021.1.4,Win32,58.87201225
,,,,,,q,1.1274,0,208,208,208,1,208,images/flickr_dog_000566.jpg,images/pixabay_dog_002649.jpg,Yun-Jen Tsai,001,2021-08-03_21h06.24.338,Dog face experiment_fully sample_901-1225,2021.1.4,Win32,58.87201225
,,,,,,p,1.3717,0,209,209,209,1,209,images/pixabay_dog_000042.jpg,images/flickr_dog_000232.jpg,Yun-Jen Tsai,001,2021-08-03_21h06.24.338,Dog face experiment_fully sample_901-1225,2021.1.4,Win32,58.87201225
,,,,,,q,1.0378,0,210,210,210,1,210,images/pixabay_dog_002649.jpg,images/pixabay_dog_003829.jpg,Yun-Jen Tsai,001,2021-08-03_21h06.24.338,Dog face experiment_fully sample_901-1225,2021.1.4,Win32,58.87201225
,,,,,,q,1.0082,0,211,211,211,1,211,images/pixabay_dog_002899.jpg,images/pixabay_dog_000744.jpg,Yun-Jen Tsai,001,2021-08-03_21h06.24.338,Dog face experiment_fully sample_901-1225,2021.1.4,Win32,58.87201225
,,,,,,p,0.8434,0,212,212,212,1,212,images/pixabay_dog_003238.jpg,images/pixabay_dog_001712.jpg,Yun-Jen Tsai,001,2021-08-03_21h06.24.338,Dog face experiment_fully sample_901-1225,2021.1.4,Win32,58.87201225
,,,,,,p,0.9113,0,213,213,213,1,213,images/pixabay_dog_000853.jpg,images/pixabay_dog_003357.jpg,Yun-Jen Tsai,001,2021-08-03_21h06.24.338,Dog face experiment_fully sample_901-1225,2021.1.4,Win32,58.87201225
,,,,,,p,0.8373,0,214,214,214,1,214,images/pixabay_dog_000042.jpg,images/pixabay_dog_002596.jpg,Yun-Jen Tsai,001,2021-08-03_21h06.24.338,Dog face experiment_fully sample_901-1225,2021.1.4,Win32,58.87201225
,,,,,,p,0.8251,0,215,215,215,1,215,images/pixabay_dog_003604.jpg,images/pixabay_dog_001524.jpg,Yun-Jen Tsai,001,2021-08-03_21h06.24.338,Dog face experiment_fully sample_901-1225,2021.1.4,Win32,58.87201225
,,,,,,p,1.0574,0,216,216,216,1,216,images/pixabay_dog_002861.jpg,images/pixabay_dog_000825.jpg,Yun-Jen Tsai,001,2021-08-03_21h06.24.338,Dog face experiment_fully sample_901-1225,2021.1.4,Win32,58.87201225
,,,,,,q,1.2542,0,217,217,217,1,217,images/pixabay_dog_000914.jpg,images/pixabay_dog_002989.jpg,Yun-Jen Tsai,001,2021-08-03_21h06.24.338,Dog face experiment_fully sample_901-1225,2021.1.4,Win32,58.87201225
,,,,,,p,1.0457,0,218,218,218,1,218,images/pixabay_dog_003727.jpg,images/pixabay_dog_002282.jpg,Yun-Jen Tsai,001,2021-08-03_21h06.24.338,Dog face experiment_fully sample_901-1225,2021.1.4,Win32,58.87201225
,,,,,,q,0.9385,0,219,219,219,1,219,images/pixabay_dog_001255.jpg,images/pixabay_dog_000952.jpg,Yun-Jen Tsai,001,2021-08-03_21h06.24.338,Dog face experiment_fully sample_901-1225,2021.1.4,Win32,58.87201225
,,,,,,q,1.6617,0,220,220,220,1,220,images/pixabay_dog_002360.jpg,images/flickr_dog_000019.jpg,Yun-Jen Tsai,001,2021-08-03_21h06.24.338,Dog face experiment_fully sample_901-1225,2021.1.4,Win32,58.87201225
,,,,,,q,1.2269,0,221,221,221,1,221,images/pixabay_dog_002268.jpg,images/pixabay_dog_003829.jpg,Yun-Jen Tsai,001,2021-08-03_21h06.24.338,Dog face experiment_fully sample_901-1225,2021.1.4,Win32,58.87201225
,,,,,,q,0.7069,0,222,222,222,1,222,images/pixabay_dog_003305.jpg,images/pixabay_dog_002282.jpg,Yun-Jen Tsai,001,2021-08-03_21h06.24.338,Dog face experiment_fully sample_901-1225,2021.1.4,Win32,58.87201225
,,,,,,q,0.9425,0,223,223,223,1,223,images/pixabay_dog_001712.jpg,images/pixabay_dog_000525.jpg,Yun-Jen Tsai,001,2021-08-03_21h06.24.338,Dog face experiment_fully sample_901-1225,2021.1.4,Win32,58.87201225
,,,,,,q,1.5881,0,224,224,224,1,224,images/pixabay_dog_003098.jpg,images/pixabay_dog_003859.jpg,Yun-Jen Tsai,001,2021-08-03_21h06.24.338,Dog face experiment_fully sample_901-1225,2021.1.4,Win32,58.87201225
,,,,,,q,1.0444,0,225,225,225,1,225,images/pixabay_dog_002899.jpg,images/pixabay_dog_003829.jpg,Yun-Jen Tsai,001,2021-08-03_21h06.24.338,Dog face experiment_fully sample_901-1225,2021.1.4,Win32,58.87201225
,,,,,,p,0.8403,0,226,226,226,1,226,images/pixabay_dog_000042.jpg,images/pixabay_dog_002899.jpg,Yun-Jen Tsai,001,2021-08-03_21h06.24.338,Dog face experiment_fully sample_901-1225,2021.1.4,Win32,58.87201225
,,,,,,q,0.808,0,227,227,227,1,227,images/flickr_dog_000861.jpg,images/pixabay_dog_002744.jpg,Yun-Jen Tsai,001,2021-08-03_21h06.24.338,Dog face experiment_fully sample_901-1225,2021.1.4,Win32,58.87201225
,,,,,,p,1.2388,0,228,228,228,1,228,images/pixabay_dog_000825.jpg,images/pixabay_dog_002989.jpg,Yun-Jen Tsai,001,2021-08-03_21h06.24.338,Dog face experiment_fully sample_901-1225,2021.1.4,Win32,58.87201225
,,,,,,q,0.6758,0,229,229,229,1,229,images/pixabay_dog_003971.jpg,images/flickr_dog_000266.jpg,Yun-Jen Tsai,001,2021-08-03_21h06.24.338,Dog face experiment_fully sample_901-1225,2021.1.4,Win32,58.87201225
,,,,,,q,0.8718,0,230,230,230,1,230,images/pixabay_dog_000042.jpg,images/flickr_dog_001079.jpg,Yun-Jen Tsai,001,2021-08-03_21h06.24.338,Dog face experiment_fully sample_901-1225,2021.1.4,Win32,58.87201225
,,,,,,p,1.038,0,231,231,231,1,231,images/flickr_dog_000019.jpg,images/pixabay_dog_000805.jpg,Yun-Jen Tsai,001,2021-08-03_21h06.24.338,Dog face experiment_fully sample_901-1225,2021.1.4,Win32,58.87201225
,,,,,,q,0.7271,0,232,232,232,1,232,images/pixabay_dog_002282.jpg,images/pixabay_dog_001843.jpg,Yun-Jen Tsai,001,2021-08-03_21h06.24.338,Dog face experiment_fully sample_901-1225,2021.1.4,Win32,58.87201225
,,,,,,p,0.7594,0,233,233,233,1,233,images/pixabay_dog_000853.jpg,images/pixabay_dog_000932.jpg,Yun-Jen Tsai,001,2021-08-03_21h06.24.338,Dog face experiment_fully sample_901-1225,2021.1.4,Win32,58.87201225
,,,,,,q,0.7959,0,234,234,234,1,234,images/flickr_dog_000083.jpg,images/pixabay_dog_003829.jpg,Yun-Jen Tsai,001,2021-08-03_21h06.24.338,Dog face experiment_fully sample_901-1225,2021.1.4,Win32,58.87201225
,,,,,,p,1.994,0,235,235,235,1,235,images/pixabay_dog_002793.jpg,images/pixabay_dog_003357.jpg,Yun-Jen Tsai,001,2021-08-03_21h06.24.338,Dog face experiment_fully sample_901-1225,2021.1.4,Win32,58.87201225
,,,,,,q,1.0223,0,236,236,236,1,236,images/pixabay_dog_001150.jpg,images/pixabay_dog_000932.jpg,Yun-Jen Tsai,001,2021-08-03_21h06.24.338,Dog face experiment_fully sample_901-1225,2021.1.4,Win32,58.87201225
,,,,,,q,0.7715,0,237,237,237,1,237,images/pixabay_dog_002360.jpg,images/pixabay_dog_000952.jpg,Yun-Jen Tsai,001,2021-08-03_21h06.24.338,Dog face experiment_fully sample_901-1225,2021.1.4,Win32,58.87201225
,,,,,,p,0.7736,0,238,238,238,1,238,images/pixabay_dog_003971.jpg,images/flickr_dog_000566.jpg,Yun-Jen Tsai,001,2021-08-03_21h06.24.338,Dog face experiment_fully sample_901-1225,2021.1.4,Win32,58.87201225
,,,,,,q,0.9443,0,239,239,239,1,239,images/pixabay_dog_003727.jpg,images/pixabay_dog_003357.jpg,Yun-Jen Tsai,001,2021-08-03_21h06.24.338,Dog face experiment_fully sample_901-1225,2021.1.4,Win32,58.87201225
,,,,,,p,0.6599,0,240,240,240,1,240,images/pixabay_dog_002268.jpg,images/pixabay_dog_003727.jpg,Yun-Jen Tsai,001,2021-08-03_21h06.24.338,Dog face experiment_fully sample_901-1225,2021.1.4,Win32,58.87201225
,,,,,,p,1.2272,0,241,241,241,1,241,images/pixabay_dog_003238.jpg,images/pixabay_dog_003727.jpg,Yun-Jen Tsai,001,2021-08-03_21h06.24.338,Dog face experiment_fully sample_901-1225,2021.1.4,Win32,58.87201225
,,,,,,q,0.8893,0,242,242,242,1,242,images/pixabay_dog_001255.jpg,images/flickr_dog_001107.jpg,Yun-Jen Tsai,001,2021-08-03_21h06.24.338,Dog face experiment_fully sample_901-1225,2021.1.4,Win32,58.87201225
,,,,,,q,1.4299,0,243,243,243,1,243,images/flickr_dog_000232.jpg,images/pixabay_dog_001465.jpg,Yun-Jen Tsai,001,2021-08-03_21h06.24.338,Dog face experiment_fully sample_901-1225,2021.1.4,Win32,58.87201225
,,,,,,p,1.2237,0,244,244,244,1,244,images/pixabay_dog_000744.jpg,images/pixabay_dog_000914.jpg,Yun-Jen Tsai,001,2021-08-03_21h06.24.338,Dog face experiment_fully sample_901-1225,2021.1.4,Win32,58.87201225
,,,,,,p,0.8561,0,245,245,245,1,245,images/pixabay_dog_000853.jpg,images/pixabay_dog_003310.jpg,Yun-Jen Tsai,001,2021-08-03_21h06.24.338,Dog face experiment_fully sample_901-1225,2021.1.4,Win32,58.87201225
,,,,,,p,3.8458,0,246,246,246,1,246,images/pixabay_dog_001150.jpg,images/pixabay_dog_002793.jpg,Yun-Jen Tsai,001,2021-08-03_21h06.24.338,Dog face experiment_fully sample_901-1225,2021.1.4,Win32,58.87201225
,,,,,,p,0.828,0,247,247,247,1,247,images/flickr_dog_000083.jpg,images/pixabay_dog_002596.jpg,Yun-Jen Tsai,001,2021-08-03_21h06.24.338,Dog face experiment_fully sample_901-1225,2021.1.4,Win32,58.87201225
,,,,,,p,0.9913,0,248,248,248,1,248,images/pixabay_dog_002268.jpg,images/flickr_dog_000861.jpg,Yun-Jen Tsai,001,2021-08-03_21h06.24.338,Dog face experiment_fully sample_901-1225,2021.1.4,Win32,58.87201225
,,,,,,q,1.0052,0,249,249,249,1,249,images/flickr_dog_000566.jpg,images/pixabay_dog_003310.jpg,Yun-Jen Tsai,001,2021-08-03_21h06.24.338,Dog face experiment_fully sample_901-1225,2021.1.4,Win32,58.87201225
,,,,,,p,0.9218,0,250,250,250,1,250,images/flickr_dog_000932.jpg,images/flickr_dog_000266.jpg,Yun-Jen Tsai,001,2021-08-03_21h06.24.338,Dog face experiment_fully sample_901-1225,2021.1.4,Win32,58.87201225
,,,,,,p,2.3546,0,251,251,251,1,251,images/pixabay_dog_000914.jpg,images/pixabay_dog_001712.jpg,Yun-Jen Tsai,001,2021-08-03_21h06.24.338,Dog face experiment_fully sample_901-1225,2021.1.4,Win32,58.87201225
,,,,,,q,1.8452,0,252,252,252,1,252,images/pixabay_dog_000914.jpg,images/pixabay_dog_001960.jpg,Yun-Jen Tsai,001,2021-08-03_21h06.24.338,Dog face experiment_fully sample_901-1225,2021.1.4,Win32,58.87201225
,,,,,,q,1.3288,0,253,253,253,1,253,images/flickr_dog_000201.jpg,images/pixabay_dog_000853.jpg,Yun-Jen Tsai,001,2021-08-03_21h06.24.338,Dog face experiment_fully sample_901-1225,2021.1.4,Win32,58.87201225
,,,,,,q,2.1055,0,254,254,254,1,254,images/pixabay_dog_003098.jpg,images/pixabay_dog_002989.jpg,Yun-Jen Tsai,001,2021-08-03_21h06.24.338,Dog face experiment_fully sample_901-1225,2021.1.4,Win32,58.87201225
,,,,,,p,0.6805,0,255,255,255,1,255,images/flickr_dog_000083.jpg,images/pixabay_dog_002793.jpg,Yun-Jen Tsai,001,2021-08-03_21h06.24.338,Dog face experiment_fully sample_901-1225,2021.1.4,Win32,58.87201225
,,,,,,q,0.6439,0,256,256,256,1,256,images/pixabay_dog_002899.jpg,images/flickr_dog_000261.jpg,Yun-Jen Tsai,001,2021-08-03_21h06.24.338,Dog face experiment_fully sample_901-1225,2021.1.4,Win32,58.87201225
,,,,,,p,1.5214,0,257,257,257,1,257,images/flickr_dog_000083.jpg,images/pixabay_dog_003310.jpg,Yun-Jen Tsai,001,2021-08-03_21h06.24.338,Dog face experiment_fully sample_901-1225,2021.1.4,Win32,58.87201225
,,,,,,p,1.1927,0,258,258,258,1,258,images/flickr_dog_000019.jpg,images/pixabay_dog_003310.jpg,Yun-Jen Tsai,001,2021-08-03_21h06.24.338,Dog face experiment_fully sample_901-1225,2021.1.4,Win32,58.87201225
,,,,,,q,1.488,0,259,259,259,1,259,images/pixabay_dog_002899.jpg,images/pixabay_dog_003098.jpg,Yun-Jen Tsai,001,2021-08-03_21h06.24.338,Dog face experiment_fully sample_901-1225,2021.1.4,Win32,58.87201225
,,,,,,p,1.3291,0,260,260,260,1,260,images/pixabay_dog_002744.jpg,images/pixabay_dog_000952.jpg,Yun-Jen Tsai,001,2021-08-03_21h06.24.338,Dog face experiment_fully sample_901-1225,2021.1.4,Win32,58.87201225
,,,,,,p,1.0211,0,261,261,261,1,261,images/pixabay_dog_000744.jpg,images/pixabay_dog_001843.jpg,Yun-Jen Tsai,001,2021-08-03_21h06.24.338,Dog face experiment_fully sample_901-1225,2021.1.4,Win32,58.87201225
,,,,,,q,0.9735,0,262,262,262,1,262,images/pixabay_dog_003604.jpg,images/pixabay_dog_001465.jpg,Yun-Jen Tsai,001,2021-08-03_21h06.24.338,Dog face experiment_fully sample_901-1225,2021.1.4,Win32,58.87201225
,,,,,,q,0.8379,0,263,263,263,1,263,images/pixabay_dog_003305.jpg,images/pixabay_dog_000952.jpg,Yun-Jen Tsai,001,2021-08-03_21h06.24.338,Dog face experiment_fully sample_901-1225,2021.1.4,Win32,58.87201225
,,,,,,q,0.9207,0,264,264,264,1,264,images/pixabay_dog_002861.jpg,images/flickr_dog_000232.jpg,Yun-Jen Tsai,001,2021-08-03_21h06.24.338,Dog face experiment_fully sample_901-1225,2021.1.4,Win32,58.87201225
,,,,,,q,1.0722,0,265,265,265,1,265,images/pixabay_dog_002899.jpg,images/pixabay_dog_003859.jpg,Yun-Jen Tsai,001,2021-08-03_21h06.24.338,Dog face experiment_fully sample_901-1225,2021.1.4,Win32,58.87201225
,,,,,,p,0.8119,0,266,266,266,1,266,images/pixabay_dog_003829.jpg,images/pixabay_dog_003859.jpg,Yun-Jen Tsai,001,2021-08-03_21h06.24.338,Dog face experiment_fully sample_901-1225,2021.1.4,Win32,58.87201225
,,,,,,p,0.8046,0,267,267,267,1,267,images/pixabay_dog_000805.jpg,images/pixabay_dog_001960.jpg,Yun-Jen Tsai,001,2021-08-03_21h06.24.338,Dog face experiment_fully sample_901-1225,2021.1.4,Win32,58.87201225
,,,,,,p,0.8223,0,268,268,268,1,268,images/pixabay_dog_000042.jpg,images/pixabay_dog_001712.jpg,Yun-Jen Tsai,001,2021-08-03_21h06.24.338,Dog face experiment_fully sample_901-1225,2021.1.4,Win32,58.87201225
,,,,,,q,1.0618,0,269,269,269,1,269,images/pixabay_dog_001524.jpg,images/flickr_dog_001107.jpg,Yun-Jen Tsai,001,2021-08-03_21h06.24.338,Dog face experiment_fully sample_901-1225,2021.1.4,Win32,58.87201225
,,,,,,p,1.1399,0,270,270,270,1,270,images/pixabay_dog_002744.jpg,images/flickr_dog_000913.jpg,Yun-Jen Tsai,001,2021-08-03_21h06.24.338,Dog face experiment_fully sample_901-1225,2021.1.4,Win32,58.87201225
,,,,,,q,1.1549,0,271,271,271,1,271,images/pixabay_dog_003305.jpg,images/pixabay_dog_002744.jpg,Yun-Jen Tsai,001,2021-08-03_21h06.24.338,Dog face experiment_fully sample_901-1225,2021.1.4,Win32,58.87201225
,,,,,,q,1.4539,0,272,272,272,1,272,images/pixabay_dog_002282.jpg,images/pixabay_dog_002649.jpg,Yun-Jen Tsai,001,2021-08-03_21h06.24.338,Dog face experiment_fully sample_901-1225,2021.1.4,Win32,58.87201225
,,,,,,q,1.7059,0,273,273,273,1,273,images/pixabay_dog_003305.jpg,images/pixabay_dog_002861.jpg,Yun-Jen Tsai,001,2021-08-03_21h06.24.338,Dog face experiment_fully sample_901-1225,2021.1.4,Win32,58.87201225
,,,,,,p,2.0544,0,274,274,274,1,274,images/pixabay_dog_002649.jpg,images/pixabay_dog_000525.jpg,Yun-Jen Tsai,001,2021-08-03_21h06.24.338,Dog face experiment_fully sample_901-1225,2021.1.4,Win32,58.87201225
,,,,,,q,1.2121,0,275,275,275,1,275,images/pixabay_dog_001150.jpg,images/pixabay_dog_002268.jpg,Yun-Jen Tsai,001,2021-08-03_21h06.24.338,Dog face experiment_fully sample_901-1225,2021.1.4,Win32,58.87201225
,,,,,,p,0.9627,0,276,276,276,1,276,images/pixabay_dog_001255.jpg,images/pixabay_dog_002282.jpg,Yun-Jen Tsai,001,2021-08-03_21h06.24.338,Dog face experiment_fully sample_901-1225,2021.1.4,Win32,58.87201225
,,,,,,q,1.0052,0,277,277,277,1,277,images/flickr_dog_000566.jpg,images/pixabay_dog_000525.jpg,Yun-Jen Tsai,001,2021-08-03_21h06.24.338,Dog face experiment_fully sample_901-1225,2021.1.4,Win32,58.87201225
,,,,,,q,0.8379,0,278,278,278,1,278,images/pixabay_dog_001150.jpg,images/pixabay_dog_003098.jpg,Yun-Jen Tsai,001,2021-08-03_21h06.24.338,Dog face experiment_fully sample_901-1225,2021.1.4,Win32,58.87201225
,,,,,,p,0.7552,0,279,279,279,1,279,images/flickr_dog_001079.jpg,images/flickr_dog_001107.jpg,Yun-Jen Tsai,001,2021-08-03_21h06.24.338,Dog face experiment_fully sample_901-1225,2021.1.4,Win32,58.87201225
,,,,,,p,0.795,0,280,280,280,1,280,images/flickr_dog_001079.jpg,images/pixabay_dog_003310.jpg,Yun-Jen Tsai,001,2021-08-03_21h06.24.338,Dog face experiment_fully sample_901-1225,2021.1.4,Win32,58.87201225
,,,,,,p,0.8736,0,281,281,281,1,281,images/flickr_dog_000019.jpg,images/pixabay_dog_002649.jpg,Yun-Jen Tsai,001,2021-08-03_21h06.24.338,Dog face experiment_fully sample_901-1225,2021.1.4,Win32,58.87201225
,,,,,,q,0.8618,0,282,282,282,1,282,images/pixabay_dog_002861.jpg,images/flickr_dog_000201.jpg,Yun-Jen Tsai,001,2021-08-03_21h06.24.338,Dog face experiment_fully sample_901-1225,2021.1.4,Win32,58.87201225
,,,,,,q,1.0886,0,283,283,283,1,283,images/pixabay_dog_003098.jpg,images/pixabay_dog_001843.jpg,Yun-Jen Tsai,001,2021-08-03_21h06.24.338,Dog face experiment_fully sample_901-1225,2021.1.4,Win32,58.87201225
,,,,,,p,1.0052,0,284,284,284,1,284,images/pixabay_dog_000744.jpg,images/flickr_dog_000266.jpg,Yun-Jen Tsai,001,2021-08-03_21h06.24.338,Dog face experiment_fully sample_901-1225,2021.1.4,Win32,58.87201225
,,,,,,q,0.8546,0,285,285,285,1,285,images/flickr_dog_000279.jpg,images/pixabay_dog_003859.jpg,Yun-Jen Tsai,001,2021-08-03_21h06.24.338,Dog face experiment_fully sample_901-1225,2021.1.4,Win32,58.87201225
,,,,,,q,0.9458,0,286,286,286,1,286,images/flickr_dog_000261.jpg,images/pixabay_dog_003357.jpg,Yun-Jen Tsai,001,2021-08-03_21h06.24.338,Dog face experiment_fully sample_901-1225,2021.1.4,Win32,58.87201225
,,,,,,q,1.7222,0,287,287,287,1,287,images/pixabay_dog_001712.jpg,images/pixabay_dog_001843.jpg,Yun-Jen Tsai,001,2021-08-03_21h06.24.338,Dog face experiment_fully sample_901-1225,2021.1.4,Win32,58.87201225
,,,,,,p,1.7218,0,288,288,288,1,288,images/pixabay_dog_003238.jpg,images/flickr_dog_000201.jpg,Yun-Jen Tsai,001,2021-08-03_21h06.24.338,Dog face experiment_fully sample_901-1225,2021.1.4,Win32,58.87201225
,,,,,,p,1.5373,0,289,289,289,1,289,images/pixabay_dog_002899.jpg,images/pixabay_dog_001524.jpg,Yun-Jen Tsai,001,2021-08-03_21h06.24.338,Dog face experiment_fully sample_901-1225,2021.1.4,Win32,58.87201225
,,,,,,q,0.7438,0,290,290,290,1,290,images/flickr_dog_000566.jpg,images/pixabay_dog_000853.jpg,Yun-Jen Tsai,001,2021-08-03_21h06.24.338,Dog face experiment_fully sample_901-1225,2021.1.4,Win32,58.87201225
,,,,,,q,0.8569,0,291,291,291,1,291,images/flickr_dog_000861.jpg,images/flickr_dog_000019.jpg,Yun-Jen Tsai,001,2021-08-03_21h06.24.338,Dog face experiment_fully sample_901-1225,2021.1.4,Win32,58.87201225
,,,,,,q,1.173,0,292,292,292,1,292,images/pixabay_dog_002899.jpg,images/pixabay_dog_003310.jpg,Yun-Jen Tsai,001,2021-08-03_21h06.24.338,Dog face experiment_fully sample_901-1225,2021.1.4,Win32,58.87201225
,,,,,,q,4.6101,0,293,293,293,1,293,images/pixabay_dog_002268.jpg,images/flickr_dog_000913.jpg,Yun-Jen Tsai,001,2021-08-03_21h06.24.338,Dog face experiment_fully sample_901-1225,2021.1.4,Win32,58.87201225
,,,,,,q,0.7704,0,294,294,294,1,294,images/pixabay_dog_001712.jpg,images/pixabay_dog_002649.jpg,Yun-Jen Tsai,001,2021-08-03_21h06.24.338,Dog face experiment_fully sample_901-1225,2021.1.4,Win32,58.87201225
,,,,,,p,1.272,0,295,295,295,1,295,images/pixabay_dog_003829.jpg,images/pixabay_dog_001960.jpg,Yun-Jen Tsai,001,2021-08-03_21h06.24.338,Dog face experiment_fully sample_901-1225,2021.1.4,Win32,58.87201225
,,,,,,q,0.7094,0,296,296,296,1,296,images/pixabay_dog_003098.jpg,images/flickr_dog_000083.jpg,Yun-Jen Tsai,001,2021-08-03_21h06.24.338,Dog face experiment_fully sample_901-1225,2021.1.4,Win32,58.87201225
,,,,,,p,0.7042,0,297,297,297,1,297,images/flickr_dog_001079.jpg,images/pixabay_dog_000805.jpg,Yun-Jen Tsai,001,2021-08-03_21h06.24.338,Dog face experiment_fully sample_901-1225,2021.1.4,Win32,58.87201225
,,,,,,p,1.9561,0,298,298,298,1,298,images/flickr_dog_000201.jpg,images/flickr_dog_000194.jpg,Yun-Jen Tsai,001,2021-08-03_21h06.24.338,Dog face experiment_fully sample_901-1225,2021.1.4,Win32,58.87201225
,,,,,,q,1.256,0,299,299,299,1,299,images/flickr_dog_000201.jpg,images/pixabay_dog_001524.jpg,Yun-Jen Tsai,001,2021-08-03_21h06.24.338,Dog face experiment_fully sample_901-1225,2021.1.4,Win32,58.87201225
,,,,,,p,0.8246,0,300,300,300,1,300,images/pixabay_dog_000744.jpg,images/pixabay_dog_003727.jpg,Yun-Jen Tsai,001,2021-08-03_21h06.24.338,Dog face experiment_fully sample_901-1225,2021.1.4,Win32,58.87201225
,,,,,,q,0.7232,0,301,301,301,1,301,images/pixabay_dog_002861.jpg,images/pixabay_dog_000805.jpg,Yun-Jen Tsai,001,2021-08-03_21h06.24.338,Dog face experiment_fully sample_901-1225,2021.1.4,Win32,58.87201225
,,,,,,q,1.0384,0,302,302,302,1,302,images/pixabay_dog_002793.jpg,images/pixabay_dog_000525.jpg,Yun-Jen Tsai,001,2021-08-03_21h06.24.338,Dog face experiment_fully sample_901-1225,2021.1.4,Win32,58.87201225
,,,,,,q,0.9101,0,303,303,303,1,303,images/pixabay_dog_003305.jpg,images/flickr_dog_000913.jpg,Yun-Jen Tsai,001,2021-08-03_21h06.24.338,Dog face experiment_fully sample_901-1225,2021.1.4,Win32,58.87201225
,,,,,,p,0.8899,0,304,304,304,1,304,images/flickr_dog_000083.jpg,images/pixabay_dog_001960.jpg,Yun-Jen Tsai,001,2021-08-03_21h06.24.338,Dog face experiment_fully sample_901-1225,2021.1.4,Win32,58.87201225
,,,,,,q,0.7543,0,305,305,305,1,305,images/flickr_dog_000932.jpg,images/pixabay_dog_000952.jpg,Yun-Jen Tsai,001,2021-08-03_21h06.24.338,Dog face experiment_fully sample_901-1225,2021.1.4,Win32,58.87201225
,,,,,,p,1.0735,0,306,306,306,1,306,images/pixabay_dog_002899.jpg,images/pixabay_dog_001712.jpg,Yun-Jen Tsai,001,2021-08-03_21h06.24.338,Dog face experiment_fully sample_901-1225,2021.1.4,Win32,58.87201225
,,,,,,p,0.9574,0,307,307,307,1,307,images/pixabay_dog_000744.jpg,images/pixabay_dog_003604.jpg,Yun-Jen Tsai,001,2021-08-03_21h06.24.338,Dog face experiment_fully sample_901-1225,2021.1.4,Win32,58.87201225
,,,,,,p,0.8073,0,308,308,308,1,308,images/pixabay_dog_000042.jpg,images/pixabay_dog_001465.jpg,Yun-Jen Tsai,001,2021-08-03_21h06.24.338,Dog face experiment_fully sample_901-1225,2021.1.4,Win32,58.87201225
,,,,,,p,0.739,0,309,309,309,1,309,images/flickr_dog_000566.jpg,images/pixabay_dog_003727.jpg,Yun-Jen Tsai,001,2021-08-03_21h06.24.338,Dog face experiment_fully sample_901-1225,2021.1.4,Win32,58.87201225
,,,,,,q,0.9528,0,310,310,310,1,310,images/flickr_dog_000566.jpg,images/pixabay_dog_002268.jpg,Yun-Jen Tsai,001,2021-08-03_21h06.24.338,Dog face experiment_fully sample_901-1225,2021.1.4,Win32,58.87201225
,,,,,,p,0.7742,0,311,311,311,1,311,images/flickr_dog_000019.jpg,images/pixabay_dog_002282.jpg,Yun-Jen Tsai,001,2021-08-03_21h06.24.338,Dog face experiment_fully sample_901-1225,2021.1.4,Win32,58.87201225
,,,,,,q,0.8091,0,312,312,312,1,312,images/flickr_dog_000261.jpg,images/pixabay_dog_002282.jpg,Yun-Jen Tsai,001,2021-08-03_21h06.24.338,Dog face experiment_fully sample_901-1225,2021.1.4,Win32,58.87201225
,,,,,,p,0.804,0,313,313,313,1,313,images/flickr_dog_001079.jpg,images/flickr_dog_000201.jpg,Yun-Jen Tsai,001,2021-08-03_21h06.24.338,Dog face experiment_fully sample_901-1225,2021.1.4,Win32,58.87201225
,,,,,,q,0.7755,0,314,314,314,1,314,images/flickr_dog_000932.jpg,images/pixabay_dog_000853.jpg,Yun-Jen Tsai,001,2021-08-03_21h06.24.338,Dog face experiment_fully sample_901-1225,2021.1.4,Win32,58.87201225
,,,,,,q,0.7375,0,315,315,315,1,315,images/pixabay_dog_002282.jpg,images/pixabay_dog_003829.jpg,Yun-Jen Tsai,001,2021-08-03_21h06.24.338,Dog face experiment_fully sample_901-1225,2021.1.4,Win32,58.87201225
,,,,,,q,1.0893,0,316,316,316,1,316,images/flickr_dog_000566.jpg,images/pixabay_dog_003098.jpg,Yun-Jen Tsai,001,2021-08-03_21h06.24.338,Dog face experiment_fully sample_901-1225,2021.1.4,Win32,58.87201225
,,,,,,q,0.8711,0,317,317,317,1,317,images/pixabay_dog_003727.jpg,images/pixabay_dog_003859.jpg,Yun-Jen Tsai,001,2021-08-03_21h06.24.338,Dog face experiment_fully sample_901-1225,2021.1.4,Win32,58.87201225
,,,,,,p,0.7724,0,318,318,318,1,318,images/flickr_dog_000083.jpg,images/pixabay_dog_002282.jpg,Yun-Jen Tsai,001,2021-08-03_21h06.24.338,Dog face experiment_fully sample_901-1225,2021.1.4,Win32,58.87201225
,,,,,,q,1.0877,0,319,319,319,1,319,images/flickr_dog_000194.jpg,images/pixabay_dog_003357.jpg,Yun-Jen Tsai,001,2021-08-03_21h06.24.338,Dog face experiment_fully sample_901-1225,2021.1.4,Win32,58.87201225
,,,,,,q,1.1299,0,320,320,320,1,320,images/pixabay_dog_001712.jpg,images/pixabay_dog_001524.jpg,Yun-Jen Tsai,001,2021-08-03_21h06.24.338,Dog face experiment_fully sample_901-1225,2021.1.4,Win32,58.87201225
,,,,,,p,2.0392,0,321,321,321,1,321,images/pixabay_dog_003238.jpg,images/pixabay_dog_003859.jpg,Yun-Jen Tsai,001,2021-08-03_21h06.24.338,Dog face experiment_fully sample_901-1225,2021.1.4,Win32,58.87201225
,,,,,,q,0.6572,0,322,322,322,1,322,images/pixabay_dog_003727.jpg,images/pixabay_dog_002989.jpg,Yun-Jen Tsai,001,2021-08-03_21h06.24.338,Dog face experiment_fully sample_901-1225,2021.1.4,Win32,58.87201225
,,,,,,p,1.961,0,323,323,323,1,323,images/flickr_dog_001079.jpg,images/pixabay_dog_002268.jpg,Yun-Jen Tsai,001,2021-08-03_21h06.24.338,Dog face experiment_fully sample_901-1225,2021.1.4,Win32,58.87201225
,,,,,,q,0.9368,0,324,324,324,1,324,images/flickr_dog_000201.jpg,images/pixabay_dog_002989.jpg,Yun-Jen Tsai,001,2021-08-03_21h06.24.338,Dog face experiment_fully sample_901-1225,2021.1.4,Win32,58.87201225
