key_resp.keys,key_resp.rt,key_resp_2.keys,key_resp_2.rt,key_resp_3.keys,key_resp_3.rt,key_resp_4.keys,key_resp_4.rt,trials.thisRepN,trials.thisTrialN,trials.thisN,trials.thisIndex,trials.ran,trail_nums,img1,img2,participant,session,date,expName,psychopyVersion,OS,frameRate
space,0.8215,space,0.6282,space,0.6315,p,1.781,0,0,0,0,1,0,images/pixabay_dog_000853.jpg,images/pixabay_dog_003859.jpg,Yun-Jen Tsai,001,2021-08-03_20h44.01.957,Dog face experiment_fully sample_0-300,2021.1.4,Win32,60.12867537
,,,,,,q,1.0422,0,1,1,1,1,1,images/pixabay_dog_001960.jpg,images/pixabay_dog_000525.jpg,Yun-Jen Tsai,001,2021-08-03_20h44.01.957,Dog face experiment_fully sample_0-300,2021.1.4,Win32,60.12867537
,,,,,,q,0.9257,0,2,2,2,1,2,images/pixabay_dog_003971.jpg,images/pixabay_dog_000744.jpg,Yun-Jen Tsai,001,2021-08-03_20h44.01.957,Dog face experiment_fully sample_0-300,2021.1.4,Win32,60.12867537
,,,,,,p,0.7898,0,3,3,3,1,3,images/pixabay_dog_000805.jpg,images/pixabay_dog_000525.jpg,Yun-Jen Tsai,001,2021-08-03_20h44.01.957,Dog face experiment_fully sample_0-300,2021.1.4,Win32,60.12867537
,,,,,,p,0.7042,0,4,4,4,1,4,images/pixabay_dog_003238.jpg,images/pixabay_dog_002282.jpg,Yun-Jen Tsai,001,2021-08-03_20h44.01.957,Dog face experiment_fully sample_0-300,2021.1.4,Win32,60.12867537
,,,,,,q,0.9207,0,5,5,5,1,5,images/pixabay_dog_003727.jpg,images/flickr_dog_000083.jpg,Yun-Jen Tsai,001,2021-08-03_20h44.01.957,Dog face experiment_fully sample_0-300,2021.1.4,Win32,60.12867537
,,,,,,q,0.8738,0,6,6,6,1,6,images/pixabay_dog_002282.jpg,images/pixabay_dog_003859.jpg,Yun-Jen Tsai,001,2021-08-03_20h44.01.957,Dog face experiment_fully sample_0-300,2021.1.4,Win32,60.12867537
,,,,,,q,0.8704,0,7,7,7,1,7,images/pixabay_dog_003305.jpg,images/pixabay_dog_002360.jpg,Yun-Jen Tsai,001,2021-08-03_20h44.01.957,Dog face experiment_fully sample_0-300,2021.1.4,Win32,60.12867537
,,,,,,q,0.8706,0,8,8,8,1,8,images/pixabay_dog_001255.jpg,images/flickr_dog_000932.jpg,Yun-Jen Tsai,001,2021-08-03_20h44.01.957,Dog face experiment_fully sample_0-300,2021.1.4,Win32,60.12867537
,,,,,,p,0.9262,0,9,9,9,1,9,images/pixabay_dog_000805.jpg,images/pixabay_dog_003357.jpg,Yun-Jen Tsai,001,2021-08-03_20h44.01.957,Dog face experiment_fully sample_0-300,2021.1.4,Win32,60.12867537
,,,,,,q,0.7204,0,10,10,10,1,10,images/pixabay_dog_002282.jpg,images/pixabay_dog_002989.jpg,Yun-Jen Tsai,001,2021-08-03_20h44.01.957,Dog face experiment_fully sample_0-300,2021.1.4,Win32,60.12867537
,,,,,,p,1.0212,0,11,11,11,1,11,images/pixabay_dog_000744.jpg,images/flickr_dog_001107.jpg,Yun-Jen Tsai,001,2021-08-03_20h44.01.957,Dog face experiment_fully sample_0-300,2021.1.4,Win32,60.12867537
,,,,,,q,0.7719,0,12,12,12,1,12,images/pixabay_dog_002282.jpg,images/pixabay_dog_002596.jpg,Yun-Jen Tsai,001,2021-08-03_20h44.01.957,Dog face experiment_fully sample_0-300,2021.1.4,Win32,60.12867537
,,,,,,p,0.7875,0,13,13,13,1,13,images/flickr_dog_000083.jpg,images/flickr_dog_001107.jpg,Yun-Jen Tsai,001,2021-08-03_20h44.01.957,Dog face experiment_fully sample_0-300,2021.1.4,Win32,60.12867537
,,,,,,p,1.2036,0,14,14,14,1,14,images/flickr_dog_000232.jpg,images/flickr_dog_000083.jpg,Yun-Jen Tsai,001,2021-08-03_20h44.01.957,Dog face experiment_fully sample_0-300,2021.1.4,Win32,60.12867537
,,,,,,p,0.9749,0,15,15,15,1,15,images/pixabay_dog_002268.jpg,images/pixabay_dog_001524.jpg,Yun-Jen Tsai,001,2021-08-03_20h44.01.957,Dog face experiment_fully sample_0-300,2021.1.4,Win32,60.12867537
,,,,,,p,3.8403,0,16,16,16,1,16,images/pixabay_dog_002744.jpg,images/pixabay_dog_001524.jpg,Yun-Jen Tsai,001,2021-08-03_20h44.01.957,Dog face experiment_fully sample_0-300,2021.1.4,Win32,60.12867537
,,,,,,q,0.9735,0,17,17,17,1,17,images/pixabay_dog_001712.jpg,images/pixabay_dog_001960.jpg,Yun-Jen Tsai,001,2021-08-03_20h44.01.957,Dog face experiment_fully sample_0-300,2021.1.4,Win32,60.12867537
,,,,,,p,1.3542,0,18,18,18,1,18,images/flickr_dog_000083.jpg,images/pixabay_dog_001465.jpg,Yun-Jen Tsai,001,2021-08-03_20h44.01.957,Dog face experiment_fully sample_0-300,2021.1.4,Win32,60.12867537
,,,,,,q,0.8284,0,19,19,19,1,19,images/pixabay_dog_000042.jpg,images/pixabay_dog_000853.jpg,Yun-Jen Tsai,001,2021-08-03_20h44.01.957,Dog face experiment_fully sample_0-300,2021.1.4,Win32,60.12867537
,,,,,,q,0.7765,0,20,20,20,1,20,images/flickr_dog_000261.jpg,images/pixabay_dog_003829.jpg,Yun-Jen Tsai,001,2021-08-03_20h44.01.957,Dog face experiment_fully sample_0-300,2021.1.4,Win32,60.12867537
,,,,,,p,0.9951,0,21,21,21,1,21,images/pixabay_dog_000853.jpg,images/flickr_dog_000913.jpg,Yun-Jen Tsai,001,2021-08-03_20h44.01.957,Dog face experiment_fully sample_0-300,2021.1.4,Win32,60.12867537
,,,,,,p,0.8729,0,22,22,22,1,22,images/pixabay_dog_000042.jpg,images/pixabay_dog_002793.jpg,Yun-Jen Tsai,001,2021-08-03_20h44.01.957,Dog face experiment_fully sample_0-300,2021.1.4,Win32,60.12867537
,,,,,,q,0.8113,0,23,23,23,1,23,images/pixabay_dog_001255.jpg,images/pixabay_dog_002989.jpg,Yun-Jen Tsai,001,2021-08-03_20h44.01.957,Dog face experiment_fully sample_0-300,2021.1.4,Win32,60.12867537
,,,,,,q,0.9624,0,24,24,24,1,24,images/pixabay_dog_002360.jpg,images/flickr_dog_000083.jpg,Yun-Jen Tsai,001,2021-08-03_20h44.01.957,Dog face experiment_fully sample_0-300,2021.1.4,Win32,60.12867537
,,,,,,q,2.4043,0,25,25,25,1,25,images/flickr_dog_000861.jpg,images/flickr_dog_000932.jpg,Yun-Jen Tsai,001,2021-08-03_20h44.01.957,Dog face experiment_fully sample_0-300,2021.1.4,Win32,60.12867537
,,,,,,q,1.1928,0,26,26,26,1,26,images/pixabay_dog_003971.jpg,images/flickr_dog_000913.jpg,Yun-Jen Tsai,001,2021-08-03_20h44.01.957,Dog face experiment_fully sample_0-300,2021.1.4,Win32,60.12867537
,,,,,,q,1.8618,0,27,27,27,1,27,images/flickr_dog_000201.jpg,images/pixabay_dog_003310.jpg,Yun-Jen Tsai,001,2021-08-03_20h44.01.957,Dog face experiment_fully sample_0-300,2021.1.4,Win32,60.12867537
,,,,,,q,2.0371,0,28,28,28,1,28,images/pixabay_dog_003859.jpg,images/pixabay_dog_001843.jpg,Yun-Jen Tsai,001,2021-08-03_20h44.01.957,Dog face experiment_fully sample_0-300,2021.1.4,Win32,60.12867537
,,,,,,q,0.8047,0,29,29,29,1,29,images/pixabay_dog_002282.jpg,images/pixabay_dog_000932.jpg,Yun-Jen Tsai,001,2021-08-03_20h44.01.957,Dog face experiment_fully sample_0-300,2021.1.4,Win32,60.12867537
,,,,,,q,0.8569,0,30,30,30,1,30,images/flickr_dog_000261.jpg,images/pixabay_dog_001524.jpg,Yun-Jen Tsai,001,2021-08-03_20h44.01.957,Dog face experiment_fully sample_0-300,2021.1.4,Win32,60.12867537
,,,,,,q,1.6551,0,31,31,31,1,31,images/pixabay_dog_000914.jpg,images/flickr_dog_000201.jpg,Yun-Jen Tsai,001,2021-08-03_20h44.01.957,Dog face experiment_fully sample_0-300,2021.1.4,Win32,60.12867537
,,,,,,q,1.0205,0,32,32,32,1,32,images/pixabay_dog_001255.jpg,images/pixabay_dog_002596.jpg,Yun-Jen Tsai,001,2021-08-03_20h44.01.957,Dog face experiment_fully sample_0-300,2021.1.4,Win32,60.12867537
,,,,,,q,1.0948,0,33,33,33,1,33,images/flickr_dog_000261.jpg,images/pixabay_dog_003859.jpg,Yun-Jen Tsai,001,2021-08-03_20h44.01.957,Dog face experiment_fully sample_0-300,2021.1.4,Win32,60.12867537
,,,,,,q,2.4087,0,34,34,34,1,34,images/pixabay_dog_000914.jpg,images/pixabay_dog_001465.jpg,Yun-Jen Tsai,001,2021-08-03_20h44.01.957,Dog face experiment_fully sample_0-300,2021.1.4,Win32,60.12867537
,,,,,,q,2.6044,0,35,35,35,1,35,images/pixabay_dog_001150.jpg,images/pixabay_dog_001843.jpg,Yun-Jen Tsai,001,2021-08-03_20h44.01.957,Dog face experiment_fully sample_0-300,2021.1.4,Win32,60.12867537
,,,,,,q,1.5218,0,36,36,36,1,36,images/pixabay_dog_003971.jpg,images/pixabay_dog_003727.jpg,Yun-Jen Tsai,001,2021-08-03_20h44.01.957,Dog face experiment_fully sample_0-300,2021.1.4,Win32,60.12867537
,,,,,,p,1.1714,0,37,37,37,1,37,images/pixabay_dog_002744.jpg,images/flickr_dog_000932.jpg,Yun-Jen Tsai,001,2021-08-03_20h44.01.957,Dog face experiment_fully sample_0-300,2021.1.4,Win32,60.12867537
,,,,,,p,0.8375,0,38,38,38,1,38,images/flickr_dog_000861.jpg,images/flickr_dog_000266.jpg,Yun-Jen Tsai,001,2021-08-03_20h44.01.957,Dog face experiment_fully sample_0-300,2021.1.4,Win32,60.12867537
,,,,,,p,2.2783,0,39,39,39,1,39,images/flickr_dog_000019.jpg,images/pixabay_dog_003859.jpg,Yun-Jen Tsai,001,2021-08-03_20h44.01.957,Dog face experiment_fully sample_0-300,2021.1.4,Win32,60.12867537
,,,,,,q,1.007,0,40,40,40,1,40,images/pixabay_dog_002282.jpg,images/pixabay_dog_000525.jpg,Yun-Jen Tsai,001,2021-08-03_20h44.01.957,Dog face experiment_fully sample_0-300,2021.1.4,Win32,60.12867537
,,,,,,p,0.9891,0,41,41,41,1,41,images/pixabay_dog_000744.jpg,images/pixabay_dog_002596.jpg,Yun-Jen Tsai,001,2021-08-03_20h44.01.957,Dog face experiment_fully sample_0-300,2021.1.4,Win32,60.12867537
,,,,,,q,1.3211,0,42,42,42,1,42,images/pixabay_dog_000952.jpg,images/pixabay_dog_002596.jpg,Yun-Jen Tsai,001,2021-08-03_20h44.01.957,Dog face experiment_fully sample_0-300,2021.1.4,Win32,60.12867537
,,,,,,p,0.9748,0,43,43,43,1,43,images/pixabay_dog_000932.jpg,images/flickr_dog_000194.jpg,Yun-Jen Tsai,001,2021-08-03_20h44.01.957,Dog face experiment_fully sample_0-300,2021.1.4,Win32,60.12867537
,,,,,,q,1.2715,0,44,44,44,1,44,images/flickr_dog_000279.jpg,images/flickr_dog_000232.jpg,Yun-Jen Tsai,001,2021-08-03_20h44.01.957,Dog face experiment_fully sample_0-300,2021.1.4,Win32,60.12867537
,,,,,,q,2.2212,0,45,45,45,1,45,images/pixabay_dog_000805.jpg,images/pixabay_dog_000853.jpg,Yun-Jen Tsai,001,2021-08-03_20h44.01.957,Dog face experiment_fully sample_0-300,2021.1.4,Win32,60.12867537
,,,,,,q,0.7376,0,46,46,46,1,46,images/pixabay_dog_003305.jpg,images/flickr_dog_000083.jpg,Yun-Jen Tsai,001,2021-08-03_20h44.01.957,Dog face experiment_fully sample_0-300,2021.1.4,Win32,60.12867537
,,,,,,p,0.8375,0,47,47,47,1,47,images/pixabay_dog_003604.jpg,images/pixabay_dog_000932.jpg,Yun-Jen Tsai,001,2021-08-03_20h44.01.957,Dog face experiment_fully sample_0-300,2021.1.4,Win32,60.12867537
,,,,,,q,0.794,0,48,48,48,1,48,images/pixabay_dog_001712.jpg,images/flickr_dog_000232.jpg,Yun-Jen Tsai,001,2021-08-03_20h44.01.957,Dog face experiment_fully sample_0-300,2021.1.4,Win32,60.12867537
,,,,,,p,1.5283,0,49,49,49,1,49,images/pixabay_dog_002899.jpg,images/pixabay_dog_000525.jpg,Yun-Jen Tsai,001,2021-08-03_20h44.01.957,Dog face experiment_fully sample_0-300,2021.1.4,Win32,60.12867537
,,,,,,q,0.8857,0,50,50,50,1,50,images/pixabay_dog_000932.jpg,images/pixabay_dog_002989.jpg,Yun-Jen Tsai,001,2021-08-03_20h44.01.957,Dog face experiment_fully sample_0-300,2021.1.4,Win32,60.12867537
,,,,,,q,0.9718,0,51,51,51,1,51,images/pixabay_dog_003971.jpg,images/flickr_dog_000083.jpg,Yun-Jen Tsai,001,2021-08-03_20h44.01.957,Dog face experiment_fully sample_0-300,2021.1.4,Win32,60.12867537
,,,,,,p,1.0708,0,52,52,52,1,52,images/pixabay_dog_000042.jpg,images/pixabay_dog_002861.jpg,Yun-Jen Tsai,001,2021-08-03_20h44.01.957,Dog face experiment_fully sample_0-300,2021.1.4,Win32,60.12867537
,,,,,,q,0.7542,0,53,53,53,1,53,images/pixabay_dog_003604.jpg,images/pixabay_dog_003829.jpg,Yun-Jen Tsai,001,2021-08-03_20h44.01.957,Dog face experiment_fully sample_0-300,2021.1.4,Win32,60.12867537
,,,,,,q,1.3721,0,54,54,54,1,54,images/pixabay_dog_001524.jpg,images/pixabay_dog_001843.jpg,Yun-Jen Tsai,001,2021-08-03_20h44.01.957,Dog face experiment_fully sample_0-300,2021.1.4,Win32,60.12867537
,,,,,,p,0.787,0,55,55,55,1,55,images/flickr_dog_000083.jpg,images/flickr_dog_000194.jpg,Yun-Jen Tsai,001,2021-08-03_20h44.01.957,Dog face experiment_fully sample_0-300,2021.1.4,Win32,60.12867537
,,,,,,p,1.2933,0,56,56,56,1,56,images/pixabay_dog_003971.jpg,images/pixabay_dog_003604.jpg,Yun-Jen Tsai,001,2021-08-03_20h44.01.957,Dog face experiment_fully sample_0-300,2021.1.4,Win32,60.12867537
,,,,,,q,1.5779,0,57,57,57,1,57,images/flickr_dog_000261.jpg,images/pixabay_dog_001712.jpg,Yun-Jen Tsai,001,2021-08-03_20h44.01.957,Dog face experiment_fully sample_0-300,2021.1.4,Win32,60.12867537
,,,,,,q,1.3421,0,58,58,58,1,58,images/pixabay_dog_000932.jpg,images/pixabay_dog_000825.jpg,Yun-Jen Tsai,001,2021-08-03_20h44.01.957,Dog face experiment_fully sample_0-300,2021.1.4,Win32,60.12867537
,,,,,,q,0.924,0,59,59,59,1,59,images/pixabay_dog_002360.jpg,images/pixabay_dog_002649.jpg,Yun-Jen Tsai,001,2021-08-03_20h44.01.957,Dog face experiment_fully sample_0-300,2021.1.4,Win32,60.12867537
,,,,,,p,1.0074,0,60,60,60,1,60,images/pixabay_dog_000042.jpg,images/flickr_dog_000861.jpg,Yun-Jen Tsai,001,2021-08-03_20h44.01.957,Dog face experiment_fully sample_0-300,2021.1.4,Win32,60.12867537
,,,,,,p,1.5361,0,61,61,61,1,61,images/pixabay_dog_001150.jpg,images/flickr_dog_000266.jpg,Yun-Jen Tsai,001,2021-08-03_20h44.01.957,Dog face experiment_fully sample_0-300,2021.1.4,Win32,60.12867537
,,,,,,q,0.8728,0,62,62,62,1,62,images/pixabay_dog_003971.jpg,images/pixabay_dog_003859.jpg,Yun-Jen Tsai,001,2021-08-03_20h44.01.957,Dog face experiment_fully sample_0-300,2021.1.4,Win32,60.12867537
,,,,,,p,1.4077,0,63,63,63,1,63,images/pixabay_dog_000042.jpg,images/flickr_dog_000201.jpg,Yun-Jen Tsai,001,2021-08-03_20h44.01.957,Dog face experiment_fully sample_0-300,2021.1.4,Win32,60.12867537
,,,,,,q,0.9887,0,64,64,64,1,64,images/pixabay_dog_003604.jpg,images/pixabay_dog_001843.jpg,Yun-Jen Tsai,001,2021-08-03_20h44.01.957,Dog face experiment_fully sample_0-300,2021.1.4,Win32,60.12867537
,,,,,,q,1.8711,0,65,65,65,1,65,images/pixabay_dog_002596.jpg,images/pixabay_dog_001843.jpg,Yun-Jen Tsai,001,2021-08-03_20h44.01.957,Dog face experiment_fully sample_0-300,2021.1.4,Win32,60.12867537
,,,,,,q,1.5076,0,66,66,66,1,66,images/flickr_dog_000083.jpg,images/pixabay_dog_000853.jpg,Yun-Jen Tsai,001,2021-08-03_20h44.01.957,Dog face experiment_fully sample_0-300,2021.1.4,Win32,60.12867537
,,,,,,p,0.8801,0,67,67,67,1,67,images/flickr_dog_000932.jpg,images/flickr_dog_000194.jpg,Yun-Jen Tsai,001,2021-08-03_20h44.01.957,Dog face experiment_fully sample_0-300,2021.1.4,Win32,60.12867537
,,,,,,q,1.3231,0,68,68,68,1,68,images/pixabay_dog_001150.jpg,images/pixabay_dog_003310.jpg,Yun-Jen Tsai,001,2021-08-03_20h44.01.957,Dog face experiment_fully sample_0-300,2021.1.4,Win32,60.12867537
,,,,,,q,1.2064,0,69,69,69,1,69,images/pixabay_dog_001960.jpg,images/flickr_dog_000913.jpg,Yun-Jen Tsai,001,2021-08-03_20h44.01.957,Dog face experiment_fully sample_0-300,2021.1.4,Win32,60.12867537
,,,,,,q,1.694,0,70,70,70,1,70,images/flickr_dog_000266.jpg,images/flickr_dog_000194.jpg,Yun-Jen Tsai,001,2021-08-03_20h44.01.957,Dog face experiment_fully sample_0-300,2021.1.4,Win32,60.12867537
,,,,,,q,0.9271,0,71,71,71,1,71,images/pixabay_dog_002360.jpg,images/flickr_dog_000279.jpg,Yun-Jen Tsai,001,2021-08-03_20h44.01.957,Dog face experiment_fully sample_0-300,2021.1.4,Win32,60.12867537
,,,,,,q,1.0924,0,72,72,72,1,72,images/flickr_dog_000861.jpg,images/pixabay_dog_003829.jpg,Yun-Jen Tsai,001,2021-08-03_20h44.01.957,Dog face experiment_fully sample_0-300,2021.1.4,Win32,60.12867537
,,,,,,p,0.871,0,73,73,73,1,73,images/pixabay_dog_000042.jpg,images/flickr_dog_000194.jpg,Yun-Jen Tsai,001,2021-08-03_20h44.01.957,Dog face experiment_fully sample_0-300,2021.1.4,Win32,60.12867537
,,,,,,p,1.2707,0,74,74,74,1,74,images/pixabay_dog_002744.jpg,images/pixabay_dog_000825.jpg,Yun-Jen Tsai,001,2021-08-03_20h44.01.957,Dog face experiment_fully sample_0-300,2021.1.4,Win32,60.12867537
,,,,,,p,1.5434,0,75,75,75,1,75,images/flickr_dog_000232.jpg,images/pixabay_dog_003859.jpg,Yun-Jen Tsai,001,2021-08-03_20h44.01.957,Dog face experiment_fully sample_0-300,2021.1.4,Win32,60.12867537
,,,,,,q,0.8215,0,76,76,76,1,76,images/pixabay_dog_001255.jpg,images/pixabay_dog_003727.jpg,Yun-Jen Tsai,001,2021-08-03_20h44.01.957,Dog face experiment_fully sample_0-300,2021.1.4,Win32,60.12867537
,,,,,,q,1.654,0,77,77,77,1,77,images/flickr_dog_000566.jpg,images/pixabay_dog_001524.jpg,Yun-Jen Tsai,001,2021-08-03_20h44.01.957,Dog face experiment_fully sample_0-300,2021.1.4,Win32,60.12867537
,,,,,,q,1.4547,0,78,78,78,1,78,images/pixabay_dog_000932.jpg,images/pixabay_dog_001465.jpg,Yun-Jen Tsai,001,2021-08-03_20h44.01.957,Dog face experiment_fully sample_0-300,2021.1.4,Win32,60.12867537
,,,,,,p,1.6465,0,79,79,79,1,79,images/pixabay_dog_000853.jpg,images/pixabay_dog_002989.jpg,Yun-Jen Tsai,001,2021-08-03_20h44.01.957,Dog face experiment_fully sample_0-300,2021.1.4,Win32,60.12867537
,,,,,,p,0.9376,0,80,80,80,1,80,images/flickr_dog_000019.jpg,images/flickr_dog_000932.jpg,Yun-Jen Tsai,001,2021-08-03_20h44.01.957,Dog face experiment_fully sample_0-300,2021.1.4,Win32,60.12867537
,,,,,,q,0.9263,0,81,81,81,1,81,images/flickr_dog_000232.jpg,images/pixabay_dog_000805.jpg,Yun-Jen Tsai,001,2021-08-03_20h44.01.957,Dog face experiment_fully sample_0-300,2021.1.4,Win32,60.12867537
,,,,,,q,1.1786,0,82,82,82,1,82,images/pixabay_dog_003971.jpg,images/pixabay_dog_002744.jpg,Yun-Jen Tsai,001,2021-08-03_20h44.01.957,Dog face experiment_fully sample_0-300,2021.1.4,Win32,60.12867537
,,,,,,p,1.0633,0,83,83,83,1,83,images/pixabay_dog_002268.jpg,images/pixabay_dog_001255.jpg,Yun-Jen Tsai,001,2021-08-03_20h44.01.957,Dog face experiment_fully sample_0-300,2021.1.4,Win32,60.12867537
,,,,,,q,1.3595,0,84,84,84,1,84,images/pixabay_dog_000914.jpg,images/flickr_dog_000932.jpg,Yun-Jen Tsai,001,2021-08-03_20h44.01.957,Dog face experiment_fully sample_0-300,2021.1.4,Win32,60.12867537
,,,,,,q,1.0715,0,85,85,85,1,85,images/pixabay_dog_002268.jpg,images/pixabay_dog_000853.jpg,Yun-Jen Tsai,001,2021-08-03_20h44.01.957,Dog face experiment_fully sample_0-300,2021.1.4,Win32,60.12867537
,,,,,,p,1.6569,0,86,86,86,1,86,images/pixabay_dog_000525.jpg,images/pixabay_dog_001843.jpg,Yun-Jen Tsai,001,2021-08-03_20h44.01.957,Dog face experiment_fully sample_0-300,2021.1.4,Win32,60.12867537
,,,,,,q,0.8213,0,87,87,87,1,87,images/pixabay_dog_003604.jpg,images/pixabay_dog_003859.jpg,Yun-Jen Tsai,001,2021-08-03_20h44.01.957,Dog face experiment_fully sample_0-300,2021.1.4,Win32,60.12867537
,,,,,,q,1.1411,0,88,88,88,1,88,images/pixabay_dog_000914.jpg,images/pixabay_dog_000932.jpg,Yun-Jen Tsai,001,2021-08-03_20h44.01.957,Dog face experiment_fully sample_0-300,2021.1.4,Win32,60.12867537
,,,,,,q,3.4044,0,89,89,89,1,89,images/pixabay_dog_003604.jpg,images/pixabay_dog_002793.jpg,Yun-Jen Tsai,001,2021-08-03_20h44.01.957,Dog face experiment_fully sample_0-300,2021.1.4,Win32,60.12867537
,,,,,,q,3.921,0,90,90,90,1,90,images/pixabay_dog_000042.jpg,images/pixabay_dog_003859.jpg,Yun-Jen Tsai,001,2021-08-03_20h44.01.957,Dog face experiment_fully sample_0-300,2021.1.4,Win32,60.12867537
,,,,,,p,0.8035,0,91,91,91,1,91,images/pixabay_dog_003305.jpg,images/pixabay_dog_001712.jpg,Yun-Jen Tsai,001,2021-08-03_20h44.01.957,Dog face experiment_fully sample_0-300,2021.1.4,Win32,60.12867537
,,,,,,q,0.7714,0,92,92,92,1,92,images/flickr_dog_000566.jpg,images/pixabay_dog_000952.jpg,Yun-Jen Tsai,001,2021-08-03_20h44.01.957,Dog face experiment_fully sample_0-300,2021.1.4,Win32,60.12867537
,,,,,,p,1.171,0,93,93,93,1,93,images/pixabay_dog_000853.jpg,images/pixabay_dog_003829.jpg,Yun-Jen Tsai,001,2021-08-03_20h44.01.957,Dog face experiment_fully sample_0-300,2021.1.4,Win32,60.12867537
,,,,,,p,1.0716,0,94,94,94,1,94,images/pixabay_dog_000853.jpg,images/pixabay_dog_001465.jpg,Yun-Jen Tsai,001,2021-08-03_20h44.01.957,Dog face experiment_fully sample_0-300,2021.1.4,Win32,60.12867537
,,,,,,q,0.9735,0,95,95,95,1,95,images/pixabay_dog_003098.jpg,images/pixabay_dog_000525.jpg,Yun-Jen Tsai,001,2021-08-03_20h44.01.957,Dog face experiment_fully sample_0-300,2021.1.4,Win32,60.12867537
,,,,,,p,0.7066,0,96,96,96,1,96,images/flickr_dog_000019.jpg,images/pixabay_dog_000932.jpg,Yun-Jen Tsai,001,2021-08-03_20h44.01.957,Dog face experiment_fully sample_0-300,2021.1.4,Win32,60.12867537
,,,,,,q,0.8044,0,97,97,97,1,97,images/pixabay_dog_003305.jpg,images/pixabay_dog_001843.jpg,Yun-Jen Tsai,001,2021-08-03_20h44.01.957,Dog face experiment_fully sample_0-300,2021.1.4,Win32,60.12867537
,,,,,,p,0.888,0,98,98,98,1,98,images/pixabay_dog_003098.jpg,images/flickr_dog_000913.jpg,Yun-Jen Tsai,001,2021-08-03_20h44.01.957,Dog face experiment_fully sample_0-300,2021.1.4,Win32,60.12867537
,,,,,,p,0.74,0,99,99,99,1,99,images/flickr_dog_000566.jpg,images/pixabay_dog_001843.jpg,Yun-Jen Tsai,001,2021-08-03_20h44.01.957,Dog face experiment_fully sample_0-300,2021.1.4,Win32,60.12867537
,,,,,,q,0.6373,0,100,100,100,1,100,images/pixabay_dog_003305.jpg,images/flickr_dog_000019.jpg,Yun-Jen Tsai,001,2021-08-03_20h44.01.957,Dog face experiment_fully sample_0-300,2021.1.4,Win32,60.12867537
,,,,,,q,0.944,0,101,101,101,1,101,images/pixabay_dog_003305.jpg,images/flickr_dog_000261.jpg,Yun-Jen Tsai,001,2021-08-03_20h44.01.957,Dog face experiment_fully sample_0-300,2021.1.4,Win32,60.12867537
,,,,,,q,1.6131,0,102,102,102,1,102,images/flickr_dog_000266.jpg,images/pixabay_dog_003859.jpg,Yun-Jen Tsai,001,2021-08-03_20h44.01.957,Dog face experiment_fully sample_0-300,2021.1.4,Win32,60.12867537
,,,,,,q,1.1898,0,103,103,103,1,103,images/pixabay_dog_000042.jpg,images/pixabay_dog_000932.jpg,Yun-Jen Tsai,001,2021-08-03_20h44.01.957,Dog face experiment_fully sample_0-300,2021.1.4,Win32,60.12867537
,,,,,,q,0.9377,0,104,104,104,1,104,images/pixabay_dog_001712.jpg,images/pixabay_dog_003604.jpg,Yun-Jen Tsai,001,2021-08-03_20h44.01.957,Dog face experiment_fully sample_0-300,2021.1.4,Win32,60.12867537
,,,,,,q,1.1241,0,105,105,105,1,105,images/pixabay_dog_002268.jpg,images/pixabay_dog_000525.jpg,Yun-Jen Tsai,001,2021-08-03_20h44.01.957,Dog face experiment_fully sample_0-300,2021.1.4,Win32,60.12867537
,,,,,,q,1.1538,0,106,106,106,1,106,images/pixabay_dog_000525.jpg,images/pixabay_dog_001524.jpg,Yun-Jen Tsai,001,2021-08-03_20h44.01.957,Dog face experiment_fully sample_0-300,2021.1.4,Win32,60.12867537
,,,,,,p,1.9709,0,107,107,107,1,107,images/pixabay_dog_000805.jpg,images/pixabay_dog_003310.jpg,Yun-Jen Tsai,001,2021-08-03_20h44.01.957,Dog face experiment_fully sample_0-300,2021.1.4,Win32,60.12867537
,,,,,,p,0.7551,0,108,108,108,1,108,images/pixabay_dog_001960.jpg,images/pixabay_dog_000825.jpg,Yun-Jen Tsai,001,2021-08-03_20h44.01.957,Dog face experiment_fully sample_0-300,2021.1.4,Win32,60.12867537
,,,,,,q,0.9098,0,109,109,109,1,109,images/pixabay_dog_002282.jpg,images/pixabay_dog_000825.jpg,Yun-Jen Tsai,001,2021-08-03_20h44.01.957,Dog face experiment_fully sample_0-300,2021.1.4,Win32,60.12867537
,,,,,,q,2.1963,0,110,110,110,1,110,images/flickr_dog_000932.jpg,images/pixabay_dog_002649.jpg,Yun-Jen Tsai,001,2021-08-03_20h44.01.957,Dog face experiment_fully sample_0-300,2021.1.4,Win32,60.12867537
,,,,,,q,1.6778,0,111,111,111,1,111,images/pixabay_dog_002268.jpg,images/pixabay_dog_000932.jpg,Yun-Jen Tsai,001,2021-08-03_20h44.01.957,Dog face experiment_fully sample_0-300,2021.1.4,Win32,60.12867537
,,,,,,p,1.3069,0,112,112,112,1,112,images/pixabay_dog_001150.jpg,images/pixabay_dog_003727.jpg,Yun-Jen Tsai,001,2021-08-03_20h44.01.957,Dog face experiment_fully sample_0-300,2021.1.4,Win32,60.12867537
,,,,,,p,2.0224,0,113,113,113,1,113,images/pixabay_dog_003829.jpg,images/pixabay_dog_001465.jpg,Yun-Jen Tsai,001,2021-08-03_20h44.01.957,Dog face experiment_fully sample_0-300,2021.1.4,Win32,60.12867537
,,,,,,p,0.6909,0,114,114,114,1,114,images/flickr_dog_000232.jpg,images/pixabay_dog_003604.jpg,Yun-Jen Tsai,001,2021-08-03_20h44.01.957,Dog face experiment_fully sample_0-300,2021.1.4,Win32,60.12867537
,,,,,,q,0.7963,0,115,115,115,1,115,images/pixabay_dog_002360.jpg,images/pixabay_dog_003604.jpg,Yun-Jen Tsai,001,2021-08-03_20h44.01.957,Dog face experiment_fully sample_0-300,2021.1.4,Win32,60.12867537
,,,,,,p,0.9045,0,116,116,116,1,116,images/pixabay_dog_003604.jpg,images/pixabay_dog_003357.jpg,Yun-Jen Tsai,001,2021-08-03_20h44.01.957,Dog face experiment_fully sample_0-300,2021.1.4,Win32,60.12867537
,,,,,,q,1.0374,0,117,117,117,1,117,images/pixabay_dog_003305.jpg,images/pixabay_dog_000853.jpg,Yun-Jen Tsai,001,2021-08-03_20h44.01.957,Dog face experiment_fully sample_0-300,2021.1.4,Win32,60.12867537
,,,,,,q,1.7437,0,118,118,118,1,118,images/pixabay_dog_001255.jpg,images/pixabay_dog_000825.jpg,Yun-Jen Tsai,001,2021-08-03_20h44.01.957,Dog face experiment_fully sample_0-300,2021.1.4,Win32,60.12867537
,,,,,,q,1.9537,0,119,119,119,1,119,images/pixabay_dog_002793.jpg,images/flickr_dog_001107.jpg,Yun-Jen Tsai,001,2021-08-03_20h44.01.957,Dog face experiment_fully sample_0-300,2021.1.4,Win32,60.12867537
,,,,,,q,3.6209,0,120,120,120,1,120,images/flickr_dog_000232.jpg,images/pixabay_dog_003829.jpg,Yun-Jen Tsai,001,2021-08-03_20h44.01.957,Dog face experiment_fully sample_0-300,2021.1.4,Win32,60.12867537
,,,,,,q,1.0413,0,121,121,121,1,121,images/pixabay_dog_002793.jpg,images/pixabay_dog_003310.jpg,Yun-Jen Tsai,001,2021-08-03_20h44.01.957,Dog face experiment_fully sample_0-300,2021.1.4,Win32,60.12867537
,,,,,,q,2.5379,0,122,122,122,1,122,images/pixabay_dog_001960.jpg,images/pixabay_dog_003859.jpg,Yun-Jen Tsai,001,2021-08-03_20h44.01.957,Dog face experiment_fully sample_0-300,2021.1.4,Win32,60.12867537
,,,,,,p,1.1234,0,123,123,123,1,123,images/pixabay_dog_003098.jpg,images/pixabay_dog_002861.jpg,Yun-Jen Tsai,001,2021-08-03_20h44.01.957,Dog face experiment_fully sample_0-300,2021.1.4,Win32,60.12867537
,,,,,,q,1.4091,0,124,124,124,1,124,images/pixabay_dog_000914.jpg,images/pixabay_dog_003310.jpg,Yun-Jen Tsai,001,2021-08-03_20h44.01.957,Dog face experiment_fully sample_0-300,2021.1.4,Win32,60.12867537
,,,,,,p,1.2545,0,125,125,125,1,125,images/pixabay_dog_003098.jpg,images/flickr_dog_000932.jpg,Yun-Jen Tsai,001,2021-08-03_20h44.01.957,Dog face experiment_fully sample_0-300,2021.1.4,Win32,60.12867537
,,,,,,p,1.7626,0,126,126,126,1,126,images/flickr_dog_000083.jpg,images/pixabay_dog_002989.jpg,Yun-Jen Tsai,001,2021-08-03_20h44.01.957,Dog face experiment_fully sample_0-300,2021.1.4,Win32,60.12867537
,,,,,,p,1.961,0,127,127,127,1,127,images/pixabay_dog_003238.jpg,images/flickr_dog_000932.jpg,Yun-Jen Tsai,001,2021-08-03_20h44.01.957,Dog face experiment_fully sample_0-300,2021.1.4,Win32,60.12867537
,,,,,,q,0.9973,0,128,128,128,1,128,images/pixabay_dog_002649.jpg,images/flickr_dog_000913.jpg,Yun-Jen Tsai,001,2021-08-03_20h44.01.957,Dog face experiment_fully sample_0-300,2021.1.4,Win32,60.12867537
,,,,,,q,1.3369,0,129,129,129,1,129,images/pixabay_dog_002360.jpg,images/pixabay_dog_000825.jpg,Yun-Jen Tsai,001,2021-08-03_20h44.01.957,Dog face experiment_fully sample_0-300,2021.1.4,Win32,60.12867537
,,,,,,p,2.7969,0,130,130,130,1,130,images/pixabay_dog_001843.jpg,images/pixabay_dog_003357.jpg,Yun-Jen Tsai,001,2021-08-03_20h44.01.957,Dog face experiment_fully sample_0-300,2021.1.4,Win32,60.12867537
,,,,,,p,1.0043,0,131,131,131,1,131,images/pixabay_dog_002989.jpg,images/pixabay_dog_001524.jpg,Yun-Jen Tsai,001,2021-08-03_20h44.01.957,Dog face experiment_fully sample_0-300,2021.1.4,Win32,60.12867537
,,,,,,p,0.7051,0,132,132,132,1,132,images/pixabay_dog_000042.jpg,images/pixabay_dog_003305.jpg,Yun-Jen Tsai,001,2021-08-03_20h44.01.957,Dog face experiment_fully sample_0-300,2021.1.4,Win32,60.12867537
,,,,,,p,1.3109,0,133,133,133,1,133,images/flickr_dog_001079.jpg,images/pixabay_dog_003098.jpg,Yun-Jen Tsai,001,2021-08-03_20h44.01.957,Dog face experiment_fully sample_0-300,2021.1.4,Win32,60.12867537
,,,,,,p,1.2088,0,134,134,134,1,134,images/pixabay_dog_000042.jpg,images/pixabay_dog_002268.jpg,Yun-Jen Tsai,001,2021-08-03_20h44.01.957,Dog face experiment_fully sample_0-300,2021.1.4,Win32,60.12867537
,,,,,,p,1.6402,0,135,135,135,1,135,images/pixabay_dog_003971.jpg,images/pixabay_dog_000525.jpg,Yun-Jen Tsai,001,2021-08-03_20h44.01.957,Dog face experiment_fully sample_0-300,2021.1.4,Win32,60.12867537
,,,,,,q,1.0272,0,136,136,136,1,136,images/flickr_dog_000279.jpg,images/flickr_dog_000913.jpg,Yun-Jen Tsai,001,2021-08-03_20h44.01.957,Dog face experiment_fully sample_0-300,2021.1.4,Win32,60.12867537
,,,,,,q,1.7728,0,137,137,137,1,137,images/pixabay_dog_000825.jpg,images/flickr_dog_001107.jpg,Yun-Jen Tsai,001,2021-08-03_20h44.01.957,Dog face experiment_fully sample_0-300,2021.1.4,Win32,60.12867537
,,,,,,q,1.2878,0,138,138,138,1,138,images/pixabay_dog_002899.jpg,images/pixabay_dog_003238.jpg,Yun-Jen Tsai,001,2021-08-03_20h44.01.957,Dog face experiment_fully sample_0-300,2021.1.4,Win32,60.12867537
,,,,,,p,1.6539,0,139,139,139,1,139,images/pixabay_dog_002268.jpg,images/flickr_dog_000261.jpg,Yun-Jen Tsai,001,2021-08-03_20h44.01.957,Dog face experiment_fully sample_0-300,2021.1.4,Win32,60.12867537
,,,,,,q,1.0214,0,140,140,140,1,140,images/flickr_dog_000201.jpg,images/pixabay_dog_001843.jpg,Yun-Jen Tsai,001,2021-08-03_20h44.01.957,Dog face experiment_fully sample_0-300,2021.1.4,Win32,60.12867537
,,,,,,p,1.0231,0,141,141,141,1,141,images/flickr_dog_000019.jpg,images/pixabay_dog_000952.jpg,Yun-Jen Tsai,001,2021-08-03_20h44.01.957,Dog face experiment_fully sample_0-300,2021.1.4,Win32,60.12867537
,,,,,,q,2.8414,0,142,142,142,1,142,images/pixabay_dog_003604.jpg,images/flickr_dog_000194.jpg,Yun-Jen Tsai,001,2021-08-03_20h44.01.957,Dog face experiment_fully sample_0-300,2021.1.4,Win32,60.12867537
,,,,,,p,1.1598,0,143,143,143,1,143,images/pixabay_dog_000825.jpg,images/pixabay_dog_003357.jpg,Yun-Jen Tsai,001,2021-08-03_20h44.01.957,Dog face experiment_fully sample_0-300,2021.1.4,Win32,60.12867537
,,,,,,p,0.7881,0,144,144,144,1,144,images/pixabay_dog_003305.jpg,images/flickr_dog_000861.jpg,Yun-Jen Tsai,001,2021-08-03_20h44.01.957,Dog face experiment_fully sample_0-300,2021.1.4,Win32,60.12867537
,,,,,,q,0.6261,0,145,145,145,1,145,images/flickr_dog_000566.jpg,images/pixabay_dog_000805.jpg,Yun-Jen Tsai,001,2021-08-03_20h44.01.957,Dog face experiment_fully sample_0-300,2021.1.4,Win32,60.12867537
,,,,,,q,0.9209,0,146,146,146,1,146,images/pixabay_dog_000914.jpg,images/pixabay_dog_003829.jpg,Yun-Jen Tsai,001,2021-08-03_20h44.01.957,Dog face experiment_fully sample_0-300,2021.1.4,Win32,60.12867537
,,,,,,p,1.004,0,147,147,147,1,147,images/flickr_dog_001079.jpg,images/flickr_dog_000861.jpg,Yun-Jen Tsai,001,2021-08-03_20h44.01.957,Dog face experiment_fully sample_0-300,2021.1.4,Win32,60.12867537
,,,,,,q,0.8446,0,148,148,148,1,148,images/flickr_dog_000261.jpg,images/pixabay_dog_001255.jpg,Yun-Jen Tsai,001,2021-08-03_20h44.01.957,Dog face experiment_fully sample_0-300,2021.1.4,Win32,60.12867537
,,,,,,q,1.1747,0,149,149,149,1,149,images/pixabay_dog_002899.jpg,images/pixabay_dog_000825.jpg,Yun-Jen Tsai,001,2021-08-03_20h44.01.957,Dog face experiment_fully sample_0-300,2021.1.4,Win32,60.12867537
,,,,,,q,1.1884,0,150,150,150,1,150,images/flickr_dog_000279.jpg,images/pixabay_dog_003727.jpg,Yun-Jen Tsai,001,2021-08-03_20h44.01.957,Dog face experiment_fully sample_0-300,2021.1.4,Win32,60.12867537
,,,,,,q,1.171,0,151,151,151,1,151,images/pixabay_dog_000952.jpg,images/pixabay_dog_001960.jpg,Yun-Jen Tsai,001,2021-08-03_20h44.01.957,Dog face experiment_fully sample_0-300,2021.1.4,Win32,60.12867537
,,,,,,q,0.8894,0,152,152,152,1,152,images/pixabay_dog_001255.jpg,images/pixabay_dog_000853.jpg,Yun-Jen Tsai,001,2021-08-03_20h44.01.957,Dog face experiment_fully sample_0-300,2021.1.4,Win32,60.12867537
,,,,,,q,2.379,0,153,153,153,1,153,images/flickr_dog_000279.jpg,images/pixabay_dog_002649.jpg,Yun-Jen Tsai,001,2021-08-03_20h44.01.957,Dog face experiment_fully sample_0-300,2021.1.4,Win32,60.12867537
,,,,,,q,1.8044,0,154,154,154,1,154,images/flickr_dog_000932.jpg,images/pixabay_dog_003310.jpg,Yun-Jen Tsai,001,2021-08-03_20h44.01.957,Dog face experiment_fully sample_0-300,2021.1.4,Win32,60.12867537
,,,,,,p,1.0876,0,155,155,155,1,155,images/flickr_dog_000261.jpg,images/pixabay_dog_000914.jpg,Yun-Jen Tsai,001,2021-08-03_20h44.01.957,Dog face experiment_fully sample_0-300,2021.1.4,Win32,60.12867537
,,,,,,q,0.494,0,156,156,156,1,156,images/pixabay_dog_000805.jpg,images/flickr_dog_001107.jpg,Yun-Jen Tsai,001,2021-08-03_20h44.01.957,Dog face experiment_fully sample_0-300,2021.1.4,Win32,60.12867537
,,,,,,q,0.9464,0,157,157,157,1,157,images/pixabay_dog_003305.jpg,images/pixabay_dog_001524.jpg,Yun-Jen Tsai,001,2021-08-03_20h44.01.957,Dog face experiment_fully sample_0-300,2021.1.4,Win32,60.12867537
,,,,,,p,1.9303,0,158,158,158,1,158,images/pixabay_dog_002899.jpg,images/pixabay_dog_002282.jpg,Yun-Jen Tsai,001,2021-08-03_20h44.01.957,Dog face experiment_fully sample_0-300,2021.1.4,Win32,60.12867537
,,,,,,q,1.0046,0,159,159,159,1,159,images/pixabay_dog_003305.jpg,images/flickr_dog_000194.jpg,Yun-Jen Tsai,001,2021-08-03_20h44.01.957,Dog face experiment_fully sample_0-300,2021.1.4,Win32,60.12867537
,,,,,,p,0.9256,0,160,160,160,1,160,images/pixabay_dog_000853.jpg,images/flickr_dog_000194.jpg,Yun-Jen Tsai,001,2021-08-03_20h44.01.957,Dog face experiment_fully sample_0-300,2021.1.4,Win32,60.12867537
,,,,,,q,1.5926,0,161,161,161,1,161,images/flickr_dog_000279.jpg,images/pixabay_dog_000932.jpg,Yun-Jen Tsai,001,2021-08-03_20h44.01.957,Dog face experiment_fully sample_0-300,2021.1.4,Win32,60.12867537
,,,,,,q,1.6895,0,162,162,162,1,162,images/pixabay_dog_002360.jpg,images/pixabay_dog_002596.jpg,Yun-Jen Tsai,001,2021-08-03_20h44.01.957,Dog face experiment_fully sample_0-300,2021.1.4,Win32,60.12867537
,,,,,,q,1.2118,0,163,163,163,1,163,images/pixabay_dog_002793.jpg,images/pixabay_dog_003829.jpg,Yun-Jen Tsai,001,2021-08-03_20h44.01.957,Dog face experiment_fully sample_0-300,2021.1.4,Win32,60.12867537
,,,,,,q,1.0545,0,164,164,164,1,164,images/pixabay_dog_002793.jpg,images/pixabay_dog_001465.jpg,Yun-Jen Tsai,001,2021-08-03_20h44.01.957,Dog face experiment_fully sample_0-300,2021.1.4,Win32,60.12867537
,,,,,,p,0.8092,0,165,165,165,1,165,images/pixabay_dog_003829.jpg,images/pixabay_dog_003357.jpg,Yun-Jen Tsai,001,2021-08-03_20h44.01.957,Dog face experiment_fully sample_0-300,2021.1.4,Win32,60.12867537
,,,,,,p,0.8207,0,166,166,166,1,166,images/flickr_dog_000019.jpg,images/flickr_dog_000232.jpg,Yun-Jen Tsai,001,2021-08-03_20h44.01.957,Dog face experiment_fully sample_0-300,2021.1.4,Win32,60.12867537
,,,,,,q,1.1374,0,167,167,167,1,167,images/pixabay_dog_002899.jpg,images/pixabay_dog_001960.jpg,Yun-Jen Tsai,001,2021-08-03_20h44.01.957,Dog face experiment_fully sample_0-300,2021.1.4,Win32,60.12867537
,,,,,,q,1.3926,0,168,168,168,1,168,images/pixabay_dog_002360.jpg,images/pixabay_dog_003859.jpg,Yun-Jen Tsai,001,2021-08-03_20h44.01.957,Dog face experiment_fully sample_0-300,2021.1.4,Win32,60.12867537
,,,,,,q,0.771,0,169,169,169,1,169,images/pixabay_dog_003604.jpg,images/pixabay_dog_002989.jpg,Yun-Jen Tsai,001,2021-08-03_20h44.01.957,Dog face experiment_fully sample_0-300,2021.1.4,Win32,60.12867537
,,,,,,p,1.1097,0,170,170,170,1,170,images/flickr_dog_001079.jpg,images/pixabay_dog_001960.jpg,Yun-Jen Tsai,001,2021-08-03_20h44.01.957,Dog face experiment_fully sample_0-300,2021.1.4,Win32,60.12867537
,,,,,,q,0.9564,0,171,171,171,1,171,images/flickr_dog_000266.jpg,images/pixabay_dog_002596.jpg,Yun-Jen Tsai,001,2021-08-03_20h44.01.957,Dog face experiment_fully sample_0-300,2021.1.4,Win32,60.12867537
,,,,,,p,1.3773,0,172,172,172,1,172,images/pixabay_dog_000744.jpg,images/pixabay_dog_001712.jpg,Yun-Jen Tsai,001,2021-08-03_20h44.01.957,Dog face experiment_fully sample_0-300,2021.1.4,Win32,60.12867537
,,,,,,p,1.0061,0,173,173,173,1,173,images/pixabay_dog_000042.jpg,images/pixabay_dog_001843.jpg,Yun-Jen Tsai,001,2021-08-03_20h44.01.957,Dog face experiment_fully sample_0-300,2021.1.4,Win32,60.12867537
,,,,,,p,0.9211,0,174,174,174,1,174,images/pixabay_dog_003238.jpg,images/pixabay_dog_000825.jpg,Yun-Jen Tsai,001,2021-08-03_20h44.01.957,Dog face experiment_fully sample_0-300,2021.1.4,Win32,60.12867537
,,,,,,q,0.7906,0,175,175,175,1,175,images/pixabay_dog_002282.jpg,images/pixabay_dog_001465.jpg,Yun-Jen Tsai,001,2021-08-03_20h44.01.957,Dog face experiment_fully sample_0-300,2021.1.4,Win32,60.12867537
,,,,,,p,1.0712,0,176,176,176,1,176,images/pixabay_dog_003238.jpg,images/flickr_dog_000913.jpg,Yun-Jen Tsai,001,2021-08-03_20h44.01.957,Dog face experiment_fully sample_0-300,2021.1.4,Win32,60.12867537
,,,,,,p,1.4226,0,177,177,177,1,177,images/pixabay_dog_003098.jpg,images/pixabay_dog_001255.jpg,Yun-Jen Tsai,001,2021-08-03_20h44.01.957,Dog face experiment_fully sample_0-300,2021.1.4,Win32,60.12867537
,,,,,,p,0.8881,0,178,178,178,1,178,images/flickr_dog_000913.jpg,images/pixabay_dog_001843.jpg,Yun-Jen Tsai,001,2021-08-03_20h44.01.957,Dog face experiment_fully sample_0-300,2021.1.4,Win32,60.12867537
,,,,,,q,0.8722,0,179,179,179,1,179,images/pixabay_dog_001255.jpg,images/flickr_dog_000279.jpg,Yun-Jen Tsai,001,2021-08-03_20h44.01.957,Dog face experiment_fully sample_0-300,2021.1.4,Win32,60.12867537
,,,,,,q,0.8043,0,180,180,180,1,180,images/pixabay_dog_002793.jpg,images/flickr_dog_000913.jpg,Yun-Jen Tsai,001,2021-08-03_20h44.01.957,Dog face experiment_fully sample_0-300,2021.1.4,Win32,60.12867537
,,,,,,q,0.7549,0,181,181,181,1,181,images/pixabay_dog_003971.jpg,images/pixabay_dog_003829.jpg,Yun-Jen Tsai,001,2021-08-03_20h44.01.957,Dog face experiment_fully sample_0-300,2021.1.4,Win32,60.12867537
,,,,,,p,0.855,0,182,182,182,1,182,images/pixabay_dog_003238.jpg,images/pixabay_dog_000525.jpg,Yun-Jen Tsai,001,2021-08-03_20h44.01.957,Dog face experiment_fully sample_0-300,2021.1.4,Win32,60.12867537
,,,,,,q,1.1298,0,183,183,183,1,183,images/flickr_dog_000266.jpg,images/pixabay_dog_000825.jpg,Yun-Jen Tsai,001,2021-08-03_20h44.01.957,Dog face experiment_fully sample_0-300,2021.1.4,Win32,60.12867537
,,,,,,q,0.9774,0,184,184,184,1,184,images/flickr_dog_000261.jpg,images/flickr_dog_000232.jpg,Yun-Jen Tsai,001,2021-08-03_20h44.01.957,Dog face experiment_fully sample_0-300,2021.1.4,Win32,60.12867537
,,,,,,q,1.3036,0,185,185,185,1,185,images/pixabay_dog_002360.jpg,images/pixabay_dog_002793.jpg,Yun-Jen Tsai,001,2021-08-03_20h44.01.957,Dog face experiment_fully sample_0-300,2021.1.4,Win32,60.12867537
,,,,,,q,1.1214,0,186,186,186,1,186,images/flickr_dog_000279.jpg,images/pixabay_dog_003829.jpg,Yun-Jen Tsai,001,2021-08-03_20h44.01.957,Dog face experiment_fully sample_0-300,2021.1.4,Win32,60.12867537
,,,,,,q,0.7242,0,187,187,187,1,187,images/pixabay_dog_001255.jpg,images/pixabay_dog_001524.jpg,Yun-Jen Tsai,001,2021-08-03_20h44.01.957,Dog face experiment_fully sample_0-300,2021.1.4,Win32,60.12867537
,,,,,,q,0.9726,0,188,188,188,1,188,images/pixabay_dog_002649.jpg,images/pixabay_dog_001465.jpg,Yun-Jen Tsai,001,2021-08-03_20h44.01.957,Dog face experiment_fully sample_0-300,2021.1.4,Win32,60.12867537
,,,,,,q,0.7765,0,189,189,189,1,189,images/pixabay_dog_001712.jpg,images/pixabay_dog_000825.jpg,Yun-Jen Tsai,001,2021-08-03_20h44.01.957,Dog face experiment_fully sample_0-300,2021.1.4,Win32,60.12867537
,,,,,,p,0.7543,0,190,190,190,1,190,images/pixabay_dog_002744.jpg,images/pixabay_dog_000932.jpg,Yun-Jen Tsai,001,2021-08-03_20h44.01.957,Dog face experiment_fully sample_0-300,2021.1.4,Win32,60.12867537
,,,,,,q,0.8955,0,191,191,191,1,191,images/pixabay_dog_003310.jpg,images/flickr_dog_001107.jpg,Yun-Jen Tsai,001,2021-08-03_20h44.01.957,Dog face experiment_fully sample_0-300,2021.1.4,Win32,60.12867537
,,,,,,q,0.7623,0,192,192,192,1,192,images/flickr_dog_000266.jpg,images/pixabay_dog_000853.jpg,Yun-Jen Tsai,001,2021-08-03_20h44.01.957,Dog face experiment_fully sample_0-300,2021.1.4,Win32,60.12867537
,,,,,,p,0.8884,0,193,193,193,1,193,images/pixabay_dog_000853.jpg,images/pixabay_dog_002596.jpg,Yun-Jen Tsai,001,2021-08-03_20h44.01.957,Dog face experiment_fully sample_0-300,2021.1.4,Win32,60.12867537
,,,,,,p,0.7712,0,194,194,194,1,194,images/pixabay_dog_000952.jpg,images/pixabay_dog_000932.jpg,Yun-Jen Tsai,001,2021-08-03_20h44.01.957,Dog face experiment_fully sample_0-300,2021.1.4,Win32,60.12867537
,,,,,,q,0.7236,0,195,195,195,1,195,images/flickr_dog_000861.jpg,images/pixabay_dog_003859.jpg,Yun-Jen Tsai,001,2021-08-03_20h44.01.957,Dog face experiment_fully sample_0-300,2021.1.4,Win32,60.12867537
,,,,,,p,1.7119,0,196,196,196,1,196,images/pixabay_dog_001150.jpg,images/pixabay_dog_002989.jpg,Yun-Jen Tsai,001,2021-08-03_20h44.01.957,Dog face experiment_fully sample_0-300,2021.1.4,Win32,60.12867537
,,,,,,q,0.7872,0,197,197,197,1,197,images/pixabay_dog_002360.jpg,images/pixabay_dog_000853.jpg,Yun-Jen Tsai,001,2021-08-03_20h44.01.957,Dog face experiment_fully sample_0-300,2021.1.4,Win32,60.12867537
,,,,,,p,1.537,0,198,198,198,1,198,images/pixabay_dog_000042.jpg,images/pixabay_dog_000525.jpg,Yun-Jen Tsai,001,2021-08-03_20h44.01.957,Dog face experiment_fully sample_0-300,2021.1.4,Win32,60.12867537
,,,,,,p,0.9042,0,199,199,199,1,199,images/pixabay_dog_002744.jpg,images/pixabay_dog_003859.jpg,Yun-Jen Tsai,001,2021-08-03_20h44.01.957,Dog face experiment_fully sample_0-300,2021.1.4,Win32,60.12867537
,,,,,,p,0.5215,0,200,200,200,1,200,images/pixabay_dog_002744.jpg,images/pixabay_dog_003604.jpg,Yun-Jen Tsai,001,2021-08-03_20h44.01.957,Dog face experiment_fully sample_0-300,2021.1.4,Win32,60.12867537
,,,,,,p,0.8705,0,201,201,201,1,201,images/pixabay_dog_001960.jpg,images/pixabay_dog_003357.jpg,Yun-Jen Tsai,001,2021-08-03_20h44.01.957,Dog face experiment_fully sample_0-300,2021.1.4,Win32,60.12867537
,,,,,,q,0.7882,0,202,202,202,1,202,images/pixabay_dog_002649.jpg,images/pixabay_dog_000952.jpg,Yun-Jen Tsai,001,2021-08-03_20h44.01.957,Dog face experiment_fully sample_0-300,2021.1.4,Win32,60.12867537
,,,,,,p,0.6547,0,203,203,203,1,203,images/pixabay_dog_003238.jpg,images/flickr_dog_000232.jpg,Yun-Jen Tsai,001,2021-08-03_20h44.01.957,Dog face experiment_fully sample_0-300,2021.1.4,Win32,60.12867537
,,,,,,p,0.8449,0,204,204,204,1,204,images/flickr_dog_001079.jpg,images/pixabay_dog_002793.jpg,Yun-Jen Tsai,001,2021-08-03_20h44.01.957,Dog face experiment_fully sample_0-300,2021.1.4,Win32,60.12867537
,,,,,,q,1.7069,0,205,205,205,1,205,images/pixabay_dog_003971.jpg,images/pixabay_dog_001960.jpg,Yun-Jen Tsai,001,2021-08-03_20h44.01.957,Dog face experiment_fully sample_0-300,2021.1.4,Win32,60.12867537
,,,,,,q,0.973,0,206,206,206,1,206,images/pixabay_dog_001712.jpg,images/flickr_dog_000194.jpg,Yun-Jen Tsai,001,2021-08-03_20h44.01.957,Dog face experiment_fully sample_0-300,2021.1.4,Win32,60.12867537
,,,,,,q,1.1574,0,207,207,207,1,207,images/flickr_dog_000261.jpg,images/pixabay_dog_001960.jpg,Yun-Jen Tsai,001,2021-08-03_20h44.01.957,Dog face experiment_fully sample_0-300,2021.1.4,Win32,60.12867537
,,,,,,q,0.8385,0,208,208,208,1,208,images/pixabay_dog_003305.jpg,images/pixabay_dog_002649.jpg,Yun-Jen Tsai,001,2021-08-03_20h44.01.957,Dog face experiment_fully sample_0-300,2021.1.4,Win32,60.12867537
,,,,,,p,1.1969,0,209,209,209,1,209,images/pixabay_dog_002744.jpg,images/flickr_dog_000019.jpg,Yun-Jen Tsai,001,2021-08-03_20h44.01.957,Dog face experiment_fully sample_0-300,2021.1.4,Win32,60.12867537
,,,,,,q,1.1412,0,210,210,210,1,210,images/pixabay_dog_003238.jpg,images/pixabay_dog_000805.jpg,Yun-Jen Tsai,001,2021-08-03_20h44.01.957,Dog face experiment_fully sample_0-300,2021.1.4,Win32,60.12867537
,,,,,,q,0.8561,0,211,211,211,1,211,images/flickr_dog_000566.jpg,images/flickr_dog_000083.jpg,Yun-Jen Tsai,001,2021-08-03_20h44.01.957,Dog face experiment_fully sample_0-300,2021.1.4,Win32,60.12867537
,,,,,,q,0.9542,0,212,212,212,1,212,images/pixabay_dog_003098.jpg,images/flickr_dog_000019.jpg,Yun-Jen Tsai,001,2021-08-03_20h44.01.957,Dog face experiment_fully sample_0-300,2021.1.4,Win32,60.12867537
,,,,,,q,1.0046,0,213,213,213,1,213,images/pixabay_dog_000914.jpg,images/pixabay_dog_002649.jpg,Yun-Jen Tsai,001,2021-08-03_20h44.01.957,Dog face experiment_fully sample_0-300,2021.1.4,Win32,60.12867537
,,,,,,q,1.0546,0,214,214,214,1,214,images/flickr_dog_000266.jpg,images/pixabay_dog_003310.jpg,Yun-Jen Tsai,001,2021-08-03_20h44.01.957,Dog face experiment_fully sample_0-300,2021.1.4,Win32,60.12867537
,,,,,,q,0.9389,0,215,215,215,1,215,images/flickr_dog_000279.jpg,images/pixabay_dog_000952.jpg,Yun-Jen Tsai,001,2021-08-03_20h44.01.957,Dog face experiment_fully sample_0-300,2021.1.4,Win32,60.12867537
,,,,,,p,1.1378,0,216,216,216,1,216,images/flickr_dog_000279.jpg,images/flickr_dog_001107.jpg,Yun-Jen Tsai,001,2021-08-03_20h44.01.957,Dog face experiment_fully sample_0-300,2021.1.4,Win32,60.12867537
,,,,,,q,0.7076,0,217,217,217,1,217,images/pixabay_dog_003098.jpg,images/flickr_dog_001107.jpg,Yun-Jen Tsai,001,2021-08-03_20h44.01.957,Dog face experiment_fully sample_0-300,2021.1.4,Win32,60.12867537
,,,,,,p,0.7557,0,218,218,218,1,218,images/pixabay_dog_000805.jpg,images/pixabay_dog_000825.jpg,Yun-Jen Tsai,001,2021-08-03_20h44.01.957,Dog face experiment_fully sample_0-300,2021.1.4,Win32,60.12867537
,,,,,,p,0.5966,0,219,219,219,1,219,images/pixabay_dog_001712.jpg,images/flickr_dog_000201.jpg,Yun-Jen Tsai,001,2021-08-03_20h44.01.957,Dog face experiment_fully sample_0-300,2021.1.4,Win32,60.12867537
,,,,,,q,0.7882,0,220,220,220,1,220,images/flickr_dog_000861.jpg,images/pixabay_dog_002989.jpg,Yun-Jen Tsai,001,2021-08-03_20h44.01.957,Dog face experiment_fully sample_0-300,2021.1.4,Win32,60.12867537
,,,,,,p,1.2372,0,221,221,221,1,221,images/flickr_dog_001079.jpg,images/pixabay_dog_001712.jpg,Yun-Jen Tsai,001,2021-08-03_20h44.01.957,Dog face experiment_fully sample_0-300,2021.1.4,Win32,60.12867537
,,,,,,q,0.8048,0,222,222,222,1,222,images/pixabay_dog_001712.jpg,images/flickr_dog_000266.jpg,Yun-Jen Tsai,001,2021-08-03_20h44.01.957,Dog face experiment_fully sample_0-300,2021.1.4,Win32,60.12867537
,,,,,,p,1.3088,0,223,223,223,1,223,images/flickr_dog_000861.jpg,images/pixabay_dog_001255.jpg,Yun-Jen Tsai,001,2021-08-03_20h44.01.957,Dog face experiment_fully sample_0-300,2021.1.4,Win32,60.12867537
,,,,,,q,1.4454,0,224,224,224,1,224,images/pixabay_dog_001150.jpg,images/pixabay_dog_001960.jpg,Yun-Jen Tsai,001,2021-08-03_20h44.01.957,Dog face experiment_fully sample_0-300,2021.1.4,Win32,60.12867537
,,,,,,q,0.9231,0,225,225,225,1,225,images/pixabay_dog_002861.jpg,images/pixabay_dog_002649.jpg,Yun-Jen Tsai,001,2021-08-03_20h44.01.957,Dog face experiment_fully sample_0-300,2021.1.4,Win32,60.12867537
,,,,,,q,1.158,0,226,226,226,1,226,images/pixabay_dog_002268.jpg,images/pixabay_dog_000805.jpg,Yun-Jen Tsai,001,2021-08-03_20h44.01.957,Dog face experiment_fully sample_0-300,2021.1.4,Win32,60.12867537
,,,,,,p,1.2438,0,227,227,227,1,227,images/pixabay_dog_002899.jpg,images/pixabay_dog_002596.jpg,Yun-Jen Tsai,001,2021-08-03_20h44.01.957,Dog face experiment_fully sample_0-300,2021.1.4,Win32,60.12867537
,,,,,,p,0.7233,0,228,228,228,1,228,images/pixabay_dog_002360.jpg,images/pixabay_dog_001843.jpg,Yun-Jen Tsai,001,2021-08-03_20h44.01.957,Dog face experiment_fully sample_0-300,2021.1.4,Win32,60.12867537
,,,,,,q,1.3312,0,229,229,229,1,229,images/pixabay_dog_003859.jpg,images/flickr_dog_000913.jpg,Yun-Jen Tsai,001,2021-08-03_20h44.01.957,Dog face experiment_fully sample_0-300,2021.1.4,Win32,60.12867537
,,,,,,q,0.7431,0,230,230,230,1,230,images/flickr_dog_000566.jpg,images/pixabay_dog_001712.jpg,Yun-Jen Tsai,001,2021-08-03_20h44.01.957,Dog face experiment_fully sample_0-300,2021.1.4,Win32,60.12867537
,,,,,,p,0.6884,0,231,231,231,1,231,images/pixabay_dog_000914.jpg,images/pixabay_dog_002282.jpg,Yun-Jen Tsai,001,2021-08-03_20h44.01.957,Dog face experiment_fully sample_0-300,2021.1.4,Win32,60.12867537
,,,,,,p,1.1787,0,232,232,232,1,232,images/pixabay_dog_002268.jpg,images/pixabay_dog_001843.jpg,Yun-Jen Tsai,001,2021-08-03_20h44.01.957,Dog face experiment_fully sample_0-300,2021.1.4,Win32,60.12867537
,,,,,,p,0.9066,0,233,233,233,1,233,images/pixabay_dog_000805.jpg,images/pixabay_dog_002649.jpg,Yun-Jen Tsai,001,2021-08-03_20h44.01.957,Dog face experiment_fully sample_0-300,2021.1.4,Win32,60.12867537
,,,,,,q,1.9871,0,234,234,234,1,234,images/pixabay_dog_002793.jpg,images/pixabay_dog_003859.jpg,Yun-Jen Tsai,001,2021-08-03_20h44.01.957,Dog face experiment_fully sample_0-300,2021.1.4,Win32,60.12867537
,,,,,,q,0.9453,0,235,235,235,1,235,images/pixabay_dog_002899.jpg,images/flickr_dog_000019.jpg,Yun-Jen Tsai,001,2021-08-03_20h44.01.957,Dog face experiment_fully sample_0-300,2021.1.4,Win32,60.12867537
,,,,,,p,0.8211,0,236,236,236,1,236,images/pixabay_dog_002268.jpg,images/pixabay_dog_003604.jpg,Yun-Jen Tsai,001,2021-08-03_20h44.01.957,Dog face experiment_fully sample_0-300,2021.1.4,Win32,60.12867537
,,,,,,p,1.7376,0,237,237,237,1,237,images/pixabay_dog_003238.jpg,images/pixabay_dog_002649.jpg,Yun-Jen Tsai,001,2021-08-03_20h44.01.957,Dog face experiment_fully sample_0-300,2021.1.4,Win32,60.12867537
,,,,,,q,0.8735,0,238,238,238,1,238,images/pixabay_dog_003604.jpg,images/pixabay_dog_000952.jpg,Yun-Jen Tsai,001,2021-08-03_20h44.01.957,Dog face experiment_fully sample_0-300,2021.1.4,Win32,60.12867537
,,,,,,p,0.8777,0,239,239,239,1,239,images/pixabay_dog_003829.jpg,images/pixabay_dog_000932.jpg,Yun-Jen Tsai,001,2021-08-03_20h44.01.957,Dog face experiment_fully sample_0-300,2021.1.4,Win32,60.12867537
,,,,,,p,0.7711,0,240,240,240,1,240,images/pixabay_dog_003310.jpg,images/pixabay_dog_003357.jpg,Yun-Jen Tsai,001,2021-08-03_20h44.01.957,Dog face experiment_fully sample_0-300,2021.1.4,Win32,60.12867537
,,,,,,p,1.3759,0,241,241,241,1,241,images/flickr_dog_001079.jpg,images/pixabay_dog_001843.jpg,Yun-Jen Tsai,001,2021-08-03_20h44.01.957,Dog face experiment_fully sample_0-300,2021.1.4,Win32,60.12867537
,,,,,,q,1.0755,0,242,242,242,1,242,images/flickr_dog_001107.jpg,images/pixabay_dog_001843.jpg,Yun-Jen Tsai,001,2021-08-03_20h44.01.957,Dog face experiment_fully sample_0-300,2021.1.4,Win32,60.12867537
,,,,,,q,1.0547,0,243,243,243,1,243,images/flickr_dog_000861.jpg,images/flickr_dog_000232.jpg,Yun-Jen Tsai,001,2021-08-03_20h44.01.957,Dog face experiment_fully sample_0-300,2021.1.4,Win32,60.12867537
,,,,,,p,0.7448,0,244,244,244,1,244,images/flickr_dog_000083.jpg,images/pixabay_dog_003357.jpg,Yun-Jen Tsai,001,2021-08-03_20h44.01.957,Dog face experiment_fully sample_0-300,2021.1.4,Win32,60.12867537
,,,,,,q,0.7381,0,245,245,245,1,245,images/pixabay_dog_003305.jpg,images/pixabay_dog_003727.jpg,Yun-Jen Tsai,001,2021-08-03_20h44.01.957,Dog face experiment_fully sample_0-300,2021.1.4,Win32,60.12867537
,,,,,,q,1.0057,0,246,246,246,1,246,images/pixabay_dog_001150.jpg,images/flickr_dog_000932.jpg,Yun-Jen Tsai,001,2021-08-03_20h44.01.957,Dog face experiment_fully sample_0-300,2021.1.4,Win32,60.12867537
,,,,,,p,1.129,0,247,247,247,1,247,images/flickr_dog_000266.jpg,images/pixabay_dog_002989.jpg,Yun-Jen Tsai,001,2021-08-03_20h44.01.957,Dog face experiment_fully sample_0-300,2021.1.4,Win32,60.12867537
,,,,,,q,2.0704,0,248,248,248,1,248,images/pixabay_dog_002596.jpg,images/flickr_dog_001107.jpg,Yun-Jen Tsai,001,2021-08-03_20h44.01.957,Dog face experiment_fully sample_0-300,2021.1.4,Win32,60.12867537
,,,,,,q,0.9514,0,249,249,249,1,249,images/pixabay_dog_000744.jpg,images/pixabay_dog_001960.jpg,Yun-Jen Tsai,001,2021-08-03_20h44.01.957,Dog face experiment_fully sample_0-300,2021.1.4,Win32,60.12867537
,,,,,,p,0.8719,0,250,250,250,1,250,images/flickr_dog_000232.jpg,images/pixabay_dog_002282.jpg,Yun-Jen Tsai,001,2021-08-03_20h44.01.957,Dog face experiment_fully sample_0-300,2021.1.4,Win32,60.12867537
,,,,,,p,1.077,0,251,251,251,1,251,images/pixabay_dog_002744.jpg,images/pixabay_dog_003727.jpg,Yun-Jen Tsai,001,2021-08-03_20h44.01.957,Dog face experiment_fully sample_0-300,2021.1.4,Win32,60.12867537
,,,,,,q,1.1121,0,252,252,252,1,252,images/pixabay_dog_002861.jpg,images/flickr_dog_000932.jpg,Yun-Jen Tsai,001,2021-08-03_20h44.01.957,Dog face experiment_fully sample_0-300,2021.1.4,Win32,60.12867537
,,,,,,p,0.8223,0,253,253,253,1,253,images/pixabay_dog_001524.jpg,images/pixabay_dog_003357.jpg,Yun-Jen Tsai,001,2021-08-03_20h44.01.957,Dog face experiment_fully sample_0-300,2021.1.4,Win32,60.12867537
,,,,,,q,0.7772,0,254,254,254,1,254,images/pixabay_dog_000744.jpg,images/pixabay_dog_000932.jpg,Yun-Jen Tsai,001,2021-08-03_20h44.01.957,Dog face experiment_fully sample_0-300,2021.1.4,Win32,60.12867537
,,,,,,q,0.8112,0,255,255,255,1,255,images/pixabay_dog_002360.jpg,images/pixabay_dog_003310.jpg,Yun-Jen Tsai,001,2021-08-03_20h44.01.957,Dog face experiment_fully sample_0-300,2021.1.4,Win32,60.12867537
,,,,,,p,0.8722,0,256,256,256,1,256,images/pixabay_dog_002861.jpg,images/pixabay_dog_001712.jpg,Yun-Jen Tsai,001,2021-08-03_20h44.01.957,Dog face experiment_fully sample_0-300,2021.1.4,Win32,60.12867537
,,,,,,q,0.9957,0,257,257,257,1,257,images/flickr_dog_000261.jpg,images/pixabay_dog_000932.jpg,Yun-Jen Tsai,001,2021-08-03_20h44.01.957,Dog face experiment_fully sample_0-300,2021.1.4,Win32,60.12867537
,,,,,,p,0.9206,0,258,258,258,1,258,images/pixabay_dog_003098.jpg,images/pixabay_dog_000825.jpg,Yun-Jen Tsai,001,2021-08-03_20h44.01.957,Dog face experiment_fully sample_0-300,2021.1.4,Win32,60.12867537
,,,,,,q,0.9069,0,259,259,259,1,259,images/flickr_dog_000194.jpg,images/pixabay_dog_001524.jpg,Yun-Jen Tsai,001,2021-08-03_20h44.01.957,Dog face experiment_fully sample_0-300,2021.1.4,Win32,60.12867537
,,,,,,q,1.4737,0,260,260,260,1,260,images/flickr_dog_000279.jpg,images/pixabay_dog_002989.jpg,Yun-Jen Tsai,001,2021-08-03_20h44.01.957,Dog face experiment_fully sample_0-300,2021.1.4,Win32,60.12867537
,,,,,,q,1.1218,0,261,261,261,1,261,images/pixabay_dog_003604.jpg,images/flickr_dog_000913.jpg,Yun-Jen Tsai,001,2021-08-03_20h44.01.957,Dog face experiment_fully sample_0-300,2021.1.4,Win32,60.12867537
,,,,,,p,1.5718,0,262,262,262,1,262,images/pixabay_dog_003098.jpg,images/flickr_dog_000201.jpg,Yun-Jen Tsai,001,2021-08-03_20h44.01.957,Dog face experiment_fully sample_0-300,2021.1.4,Win32,60.12867537
,,,,,,q,1.3544,0,263,263,263,1,263,images/pixabay_dog_001150.jpg,images/flickr_dog_000861.jpg,Yun-Jen Tsai,001,2021-08-03_20h44.01.957,Dog face experiment_fully sample_0-300,2021.1.4,Win32,60.12867537
,,,,,,q,1.0098,0,264,264,264,1,264,images/flickr_dog_000201.jpg,images/pixabay_dog_000952.jpg,Yun-Jen Tsai,001,2021-08-03_20h44.01.957,Dog face experiment_fully sample_0-300,2021.1.4,Win32,60.12867537
,,,,,,q,0.9556,0,265,265,265,1,265,images/pixabay_dog_003098.jpg,images/pixabay_dog_003310.jpg,Yun-Jen Tsai,001,2021-08-03_20h44.01.957,Dog face experiment_fully sample_0-300,2021.1.4,Win32,60.12867537
,,,,,,p,1.1718,0,266,266,266,1,266,images/flickr_dog_000019.jpg,images/flickr_dog_000194.jpg,Yun-Jen Tsai,001,2021-08-03_20h44.01.957,Dog face experiment_fully sample_0-300,2021.1.4,Win32,60.12867537
,,,,,,p,0.9618,0,267,267,267,1,267,images/flickr_dog_001079.jpg,images/flickr_dog_000194.jpg,Yun-Jen Tsai,001,2021-08-03_20h44.01.957,Dog face experiment_fully sample_0-300,2021.1.4,Win32,60.12867537
,,,,,,p,1.2577,0,268,268,268,1,268,images/pixabay_dog_003098.jpg,images/flickr_dog_000279.jpg,Yun-Jen Tsai,001,2021-08-03_20h44.01.957,Dog face experiment_fully sample_0-300,2021.1.4,Win32,60.12867537
,,,,,,q,2.2217,0,269,269,269,1,269,images/pixabay_dog_003971.jpg,images/pixabay_dog_000932.jpg,Yun-Jen Tsai,001,2021-08-03_20h44.01.957,Dog face experiment_fully sample_0-300,2021.1.4,Win32,60.12867537
,,,,,,p,1.6883,0,270,270,270,1,270,images/pixabay_dog_002649.jpg,images/flickr_dog_000194.jpg,Yun-Jen Tsai,001,2021-08-03_20h44.01.957,Dog face experiment_fully sample_0-300,2021.1.4,Win32,60.12867537
,,,,,,p,0.8299,0,271,271,271,1,271,images/flickr_dog_000083.jpg,images/pixabay_dog_000825.jpg,Yun-Jen Tsai,001,2021-08-03_20h44.01.957,Dog face experiment_fully sample_0-300,2021.1.4,Win32,60.12867537
,,,,,,p,0.7291,0,272,272,272,1,272,images/pixabay_dog_003971.jpg,images/pixabay_dog_002861.jpg,Yun-Jen Tsai,001,2021-08-03_20h44.01.957,Dog face experiment_fully sample_0-300,2021.1.4,Win32,60.12867537
,,,,,,p,1.6795,0,273,273,273,1,273,images/flickr_dog_000861.jpg,images/flickr_dog_000913.jpg,Yun-Jen Tsai,001,2021-08-03_20h44.01.957,Dog face experiment_fully sample_0-300,2021.1.4,Win32,60.12867537
,,,,,,q,1.1876,0,274,274,274,1,274,images/pixabay_dog_002268.jpg,images/pixabay_dog_000825.jpg,Yun-Jen Tsai,001,2021-08-03_20h44.01.957,Dog face experiment_fully sample_0-300,2021.1.4,Win32,60.12867537
,,,,,,p,0.8263,0,275,275,275,1,275,images/flickr_dog_001079.jpg,images/pixabay_dog_000825.jpg,Yun-Jen Tsai,001,2021-08-03_20h44.01.957,Dog face experiment_fully sample_0-300,2021.1.4,Win32,60.12867537
,,,,,,q,1.0108,0,276,276,276,1,276,images/pixabay_dog_002268.jpg,images/pixabay_dog_000744.jpg,Yun-Jen Tsai,001,2021-08-03_20h44.01.957,Dog face experiment_fully sample_0-300,2021.1.4,Win32,60.12867537
,,,,,,p,0.9574,0,277,277,277,1,277,images/pixabay_dog_002596.jpg,images/pixabay_dog_003859.jpg,Yun-Jen Tsai,001,2021-08-03_20h44.01.957,Dog face experiment_fully sample_0-300,2021.1.4,Win32,60.12867537
,,,,,,p,1.0915,0,278,278,278,1,278,images/pixabay_dog_002899.jpg,images/flickr_dog_000279.jpg,Yun-Jen Tsai,001,2021-08-03_20h44.01.957,Dog face experiment_fully sample_0-300,2021.1.4,Win32,60.12867537
,,,,,,p,1.9222,0,279,279,279,1,279,images/pixabay_dog_000744.jpg,images/pixabay_dog_002649.jpg,Yun-Jen Tsai,001,2021-08-03_20h44.01.957,Dog face experiment_fully sample_0-300,2021.1.4,Win32,60.12867537
,,,,,,q,1.0264,0,280,280,280,1,280,images/pixabay_dog_002899.jpg,images/pixabay_dog_000914.jpg,Yun-Jen Tsai,001,2021-08-03_20h44.01.957,Dog face experiment_fully sample_0-300,2021.1.4,Win32,60.12867537
,,,,,,p,0.795,0,281,281,281,1,281,images/pixabay_dog_000744.jpg,images/flickr_dog_000861.jpg,Yun-Jen Tsai,001,2021-08-03_20h44.01.957,Dog face experiment_fully sample_0-300,2021.1.4,Win32,60.12867537
,,,,,,q,1.7141,0,282,282,282,1,282,images/pixabay_dog_002861.jpg,images/pixabay_dog_001255.jpg,Yun-Jen Tsai,001,2021-08-03_20h44.01.957,Dog face experiment_fully sample_0-300,2021.1.4,Win32,60.12867537
,,,,,,q,1.0062,0,283,283,283,1,283,images/pixabay_dog_002989.jpg,images/pixabay_dog_000525.jpg,Yun-Jen Tsai,001,2021-08-03_20h44.01.957,Dog face experiment_fully sample_0-300,2021.1.4,Win32,60.12867537
,,,,,,p,1.9292,0,284,284,284,1,284,images/pixabay_dog_000805.jpg,images/pixabay_dog_003829.jpg,Yun-Jen Tsai,001,2021-08-03_20h44.01.957,Dog face experiment_fully sample_0-300,2021.1.4,Win32,60.12867537
,,,,,,q,1.1207,0,285,285,285,1,285,images/pixabay_dog_000914.jpg,images/pixabay_dog_003859.jpg,Yun-Jen Tsai,001,2021-08-03_20h44.01.957,Dog face experiment_fully sample_0-300,2021.1.4,Win32,60.12867537
,,,,,,p,0.9882,0,286,286,286,1,286,images/pixabay_dog_002744.jpg,images/pixabay_dog_001843.jpg,Yun-Jen Tsai,001,2021-08-03_20h44.01.957,Dog face experiment_fully sample_0-300,2021.1.4,Win32,60.12867537
,,,,,,q,0.955,0,287,287,287,1,287,images/pixabay_dog_001255.jpg,images/pixabay_dog_000805.jpg,Yun-Jen Tsai,001,2021-08-03_20h44.01.957,Dog face experiment_fully sample_0-300,2021.1.4,Win32,60.12867537
,,,,,,p,0.895,0,288,288,288,1,288,images/pixabay_dog_003238.jpg,images/pixabay_dog_003357.jpg,Yun-Jen Tsai,001,2021-08-03_20h44.01.957,Dog face experiment_fully sample_0-300,2021.1.4,Win32,60.12867537
,,,,,,p,0.8931,0,289,289,289,1,289,images/pixabay_dog_000042.jpg,images/pixabay_dog_002649.jpg,Yun-Jen Tsai,001,2021-08-03_20h44.01.957,Dog face experiment_fully sample_0-300,2021.1.4,Win32,60.12867537
,,,,,,q,1.1379,0,290,290,290,1,290,images/flickr_dog_000861.jpg,images/pixabay_dog_001843.jpg,Yun-Jen Tsai,001,2021-08-03_20h44.01.957,Dog face experiment_fully sample_0-300,2021.1.4,Win32,60.12867537
,,,,,,q,0.7081,0,291,291,291,1,291,images/pixabay_dog_002360.jpg,images/pixabay_dog_000914.jpg,Yun-Jen Tsai,001,2021-08-03_20h44.01.957,Dog face experiment_fully sample_0-300,2021.1.4,Win32,60.12867537
,,,,,,q,0.9437,0,292,292,292,1,292,images/flickr_dog_000566.jpg,images/pixabay_dog_002744.jpg,Yun-Jen Tsai,001,2021-08-03_20h44.01.957,Dog face experiment_fully sample_0-300,2021.1.4,Win32,60.12867537
,,,,,,q,0.8715,0,293,293,293,1,293,images/pixabay_dog_001712.jpg,images/pixabay_dog_003859.jpg,Yun-Jen Tsai,001,2021-08-03_20h44.01.957,Dog face experiment_fully sample_0-300,2021.1.4,Win32,60.12867537
,,,,,,q,1.3958,0,294,294,294,1,294,images/pixabay_dog_001712.jpg,images/pixabay_dog_003310.jpg,Yun-Jen Tsai,001,2021-08-03_20h44.01.957,Dog face experiment_fully sample_0-300,2021.1.4,Win32,60.12867537
,,,,,,q,1.0436,0,295,295,295,1,295,images/pixabay_dog_003305.jpg,images/pixabay_dog_000525.jpg,Yun-Jen Tsai,001,2021-08-03_20h44.01.957,Dog face experiment_fully sample_0-300,2021.1.4,Win32,60.12867537
,,,,,,p,1.5422,0,296,296,296,1,296,images/flickr_dog_000194.jpg,images/flickr_dog_001107.jpg,Yun-Jen Tsai,001,2021-08-03_20h44.01.957,Dog face experiment_fully sample_0-300,2021.1.4,Win32,60.12867537
,,,,,,q,1.1049,0,297,297,297,1,297,images/pixabay_dog_001150.jpg,images/flickr_dog_000083.jpg,Yun-Jen Tsai,001,2021-08-03_20h44.01.957,Dog face experiment_fully sample_0-300,2021.1.4,Win32,60.12867537
,,,,,,q,1.1569,0,298,298,298,1,298,images/flickr_dog_000201.jpg,images/pixabay_dog_001960.jpg,Yun-Jen Tsai,001,2021-08-03_20h44.01.957,Dog face experiment_fully sample_0-300,2021.1.4,Win32,60.12867537
,,,,,,q,0.8539,0,299,299,299,1,299,images/pixabay_dog_003098.jpg,images/pixabay_dog_000744.jpg,Yun-Jen Tsai,001,2021-08-03_20h44.01.957,Dog face experiment_fully sample_0-300,2021.1.4,Win32,60.12867537
