key_resp.keys,key_resp.rt,key_resp_2.keys,key_resp_2.rt,key_resp_3.keys,key_resp_3.rt,key_resp_4.keys,key_resp_4.rt,trials.thisRepN,trials.thisTrialN,trials.thisN,trials.thisIndex,trials.ran,trail_nums,img1,img2,participant,session,date,expName,psychopyVersion,OS,frameRate
space,5.4752,space,1.5054,space,1.248,q,2.4999,0,0,0,0,1,0,images/flickr_cat_000206.jpg,images/pixabay_cat_003312.jpg,Chenxi Liao,1,2021-06-21_15h26.37.139,Cat face experiment_fully sample_301-600,2021.1.4,MacIntel,59.99520038
,,,,,,q,2.3228,0,1,1,1,1,1,images/pixabay_cat_000120.jpg,images/pixabay_cat_003312.jpg,Chenxi Liao,1,2021-06-21_15h26.37.139,Cat face experiment_fully sample_301-600,2021.1.4,MacIntel,59.99520038
,,,,,,q,3.7265,0,2,2,2,1,2,images/pixabay_cat_000120.jpg,images/flickr_cat_000083.jpg,Chenxi Liao,1,2021-06-21_15h26.37.139,Cat face experiment_fully sample_301-600,2021.1.4,MacIntel,59.99520038
,,,,,,q,1.2923,0,3,3,3,1,3,images/flickr_cat_000581.jpg,images/pixabay_cat_000043.jpg,Chenxi Liao,1,2021-06-21_15h26.37.139,Cat face experiment_fully sample_301-600,2021.1.4,MacIntel,59.99520038
,,,,,,q,3.0561,0,4,4,4,1,4,images/pixabay_cat_003425.jpg,images/pixabay_cat_001597.jpg,Chenxi Liao,1,2021-06-21_15h26.37.139,Cat face experiment_fully sample_301-600,2021.1.4,MacIntel,59.99520038
,,,,,,p,1.4441,0,5,5,5,1,5,images/pixabay_cat_001265.jpg,images/pixabay_cat_003638.jpg,Chenxi Liao,1,2021-06-21_15h26.37.139,Cat face experiment_fully sample_301-600,2021.1.4,MacIntel,59.99520038
,,,,,,p,1.492,0,6,6,6,1,6,images/pixabay_cat_003186.jpg,images/pixabay_cat_003312.jpg,Chenxi Liao,1,2021-06-21_15h26.37.139,Cat face experiment_fully sample_301-600,2021.1.4,MacIntel,59.99520038
,,,,,,p,3.235,0,7,7,7,1,7,images/pixabay_cat_004292.jpg,images/flickr_cat_000200.jpg,Chenxi Liao,1,2021-06-21_15h26.37.139,Cat face experiment_fully sample_301-600,2021.1.4,MacIntel,59.99520038
,,,,,,q,1.3779,0,8,8,8,1,8,images/pixabay_cat_001597.jpg,images/pixabay_cat_000883.jpg,Chenxi Liao,1,2021-06-21_15h26.37.139,Cat face experiment_fully sample_301-600,2021.1.4,MacIntel,59.99520038
,,,,,,q,1.4897,0,9,9,9,1,9,images/pixabay_cat_002690.jpg,images/pixabay_cat_001206.jpg,Chenxi Liao,1,2021-06-21_15h26.37.139,Cat face experiment_fully sample_301-600,2021.1.4,MacIntel,59.99520038
,,,,,,q,1.4616,0,10,10,10,1,10,images/flickr_cat_000581.jpg,images/pixabay_cat_001805.jpg,Chenxi Liao,1,2021-06-21_15h26.37.139,Cat face experiment_fully sample_301-600,2021.1.4,MacIntel,59.99520038
,,,,,,q,1.5088,0,11,11,11,1,11,images/pixabay_cat_001284.jpg,images/pixabay_cat_001178.jpg,Chenxi Liao,1,2021-06-21_15h26.37.139,Cat face experiment_fully sample_301-600,2021.1.4,MacIntel,59.99520038
,,,,,,q,2.6452,0,12,12,12,1,12,images/pixabay_cat_003186.jpg,images/pixabay_cat_002300.jpg,Chenxi Liao,1,2021-06-21_15h26.37.139,Cat face experiment_fully sample_301-600,2021.1.4,MacIntel,59.99520038
,,,,,,q,1.3923,0,13,13,13,1,13,images/pixabay_cat_001102.jpg,images/pixabay_cat_003186.jpg,Chenxi Liao,1,2021-06-21_15h26.37.139,Cat face experiment_fully sample_301-600,2021.1.4,MacIntel,59.99520038
,,,,,,q,1.0944,0,14,14,14,1,14,images/flickr_cat_000206.jpg,images/pixabay_cat_000100.jpg,Chenxi Liao,1,2021-06-21_15h26.37.139,Cat face experiment_fully sample_301-600,2021.1.4,MacIntel,59.99520038
,,,,,,q,1.2766,0,15,15,15,1,15,images/pixabay_cat_001597.jpg,images/pixabay_cat_001805.jpg,Chenxi Liao,1,2021-06-21_15h26.37.139,Cat face experiment_fully sample_301-600,2021.1.4,MacIntel,59.99520038
,,,,,,p,1.1659,0,16,16,16,1,16,images/pixabay_cat_002300.jpg,images/flickr_cat_000200.jpg,Chenxi Liao,1,2021-06-21_15h26.37.139,Cat face experiment_fully sample_301-600,2021.1.4,MacIntel,59.99520038
,,,,,,q,1.4587,0,17,17,17,1,17,images/flickr_cat_000271.jpg,images/pixabay_cat_003121.jpg,Chenxi Liao,1,2021-06-21_15h26.37.139,Cat face experiment_fully sample_301-600,2021.1.4,MacIntel,59.99520038
,,,,,,q,1.5915,0,18,18,18,1,18,images/flickr_cat_000240.jpg,images/pixabay_cat_001178.jpg,Chenxi Liao,1,2021-06-21_15h26.37.139,Cat face experiment_fully sample_301-600,2021.1.4,MacIntel,59.99520038
,,,,,,p,2.2797,0,19,19,19,1,19,images/pixabay_cat_003425.jpg,images/pixabay_cat_001284.jpg,Chenxi Liao,1,2021-06-21_15h26.37.139,Cat face experiment_fully sample_301-600,2021.1.4,MacIntel,59.99520038
,,,,,,p,0.9905,0,20,20,20,1,20,images/flickr_cat_000271.jpg,images/pixabay_cat_001862.jpg,Chenxi Liao,1,2021-06-21_15h26.37.139,Cat face experiment_fully sample_301-600,2021.1.4,MacIntel,59.99520038
,,,,,,q,1.1467,0,21,21,21,1,21,images/pixabay_cat_003228.jpg,images/pixabay_cat_003077.jpg,Chenxi Liao,1,2021-06-21_15h26.37.139,Cat face experiment_fully sample_301-600,2021.1.4,MacIntel,59.99520038
,,,,,,p,3.814,0,22,22,22,1,22,images/pixabay_cat_003228.jpg,images/pixabay_cat_001304.jpg,Chenxi Liao,1,2021-06-21_15h26.37.139,Cat face experiment_fully sample_301-600,2021.1.4,MacIntel,59.99520038
,,,,,,q,2.0567,0,23,23,23,1,23,images/pixabay_cat_000260.jpg,images/pixabay_cat_003121.jpg,Chenxi Liao,1,2021-06-21_15h26.37.139,Cat face experiment_fully sample_301-600,2021.1.4,MacIntel,59.99520038
,,,,,,q,1.1422,0,24,24,24,1,24,images/pixabay_cat_001502.jpg,images/pixabay_cat_001284.jpg,Chenxi Liao,1,2021-06-21_15h26.37.139,Cat face experiment_fully sample_301-600,2021.1.4,MacIntel,59.99520038
,,,,,,p,1.2463,0,25,25,25,1,25,images/pixabay_cat_003312.jpg,images/pixabay_cat_004182.jpg,Chenxi Liao,1,2021-06-21_15h26.37.139,Cat face experiment_fully sample_301-600,2021.1.4,MacIntel,59.99520038
,,,,,,q,3.8912,0,26,26,26,1,26,images/pixabay_cat_004641.jpg,images/pixabay_cat_001284.jpg,Chenxi Liao,1,2021-06-21_15h26.37.139,Cat face experiment_fully sample_301-600,2021.1.4,MacIntel,59.99520038
,,,,,,q,0.867,0,27,27,27,1,27,images/pixabay_cat_004148.jpg,images/pixabay_cat_001284.jpg,Chenxi Liao,1,2021-06-21_15h26.37.139,Cat face experiment_fully sample_301-600,2021.1.4,MacIntel,59.99520038
,,,,,,q,2.1421,0,28,28,28,1,28,images/pixabay_cat_000411.jpg,images/flickr_cat_000271.jpg,Chenxi Liao,1,2021-06-21_15h26.37.139,Cat face experiment_fully sample_301-600,2021.1.4,MacIntel,59.99520038
,,,,,,p,1.1462,0,29,29,29,1,29,images/pixabay_cat_002614.jpg,images/pixabay_cat_004148.jpg,Chenxi Liao,1,2021-06-21_15h26.37.139,Cat face experiment_fully sample_301-600,2021.1.4,MacIntel,59.99520038
,,,,,,p,1.1967,0,30,30,30,1,30,images/pixabay_cat_003077.jpg,images/pixabay_cat_001805.jpg,Chenxi Liao,1,2021-06-21_15h26.37.139,Cat face experiment_fully sample_301-600,2021.1.4,MacIntel,59.99520038
,,,,,,q,3.507,0,31,31,31,1,31,images/pixabay_cat_002614.jpg,images/pixabay_cat_000100.jpg,Chenxi Liao,1,2021-06-21_15h26.37.139,Cat face experiment_fully sample_301-600,2021.1.4,MacIntel,59.99520038
,,,,,,q,1.312,0,32,32,32,1,32,images/pixabay_cat_002614.jpg,images/pixabay_cat_003121.jpg,Chenxi Liao,1,2021-06-21_15h26.37.139,Cat face experiment_fully sample_301-600,2021.1.4,MacIntel,59.99520038
,,,,,,p,1.5458,0,33,33,33,1,33,images/pixabay_cat_001160.jpg,images/pixabay_cat_000100.jpg,Chenxi Liao,1,2021-06-21_15h26.37.139,Cat face experiment_fully sample_301-600,2021.1.4,MacIntel,59.99520038
,,,,,,q,1.1679,0,34,34,34,1,34,images/pixabay_cat_000043.jpg,images/pixabay_cat_001178.jpg,Chenxi Liao,1,2021-06-21_15h26.37.139,Cat face experiment_fully sample_301-600,2021.1.4,MacIntel,59.99520038
,,,,,,q,2.2156,0,35,35,35,1,35,images/pixabay_cat_004489.jpg,images/pixabay_cat_003927.jpg,Chenxi Liao,1,2021-06-21_15h26.37.139,Cat face experiment_fully sample_301-600,2021.1.4,MacIntel,59.99520038
,,,,,,q,1.1122,0,36,36,36,1,36,images/pixabay_cat_000120.jpg,images/flickr_cat_000200.jpg,Chenxi Liao,1,2021-06-21_15h26.37.139,Cat face experiment_fully sample_301-600,2021.1.4,MacIntel,59.99520038
,,,,,,p,1.4071,0,37,37,37,1,37,images/pixabay_cat_002601.jpg,images/pixabay_cat_001178.jpg,Chenxi Liao,1,2021-06-21_15h26.37.139,Cat face experiment_fully sample_301-600,2021.1.4,MacIntel,59.99520038
,,,,,,q,1.3734,0,38,38,38,1,38,images/flickr_cat_000083.jpg,images/pixabay_cat_003638.jpg,Chenxi Liao,1,2021-06-21_15h26.37.139,Cat face experiment_fully sample_301-600,2021.1.4,MacIntel,59.99520038
,,,,,,q,0.9123,0,39,39,39,1,39,images/flickr_cat_000581.jpg,images/pixabay_cat_000260.jpg,Chenxi Liao,1,2021-06-21_15h26.37.139,Cat face experiment_fully sample_301-600,2021.1.4,MacIntel,59.99520038
,,,,,,q,1.3955,0,40,40,40,1,40,images/flickr_cat_000022.jpg,images/flickr_cat_000083.jpg,Chenxi Liao,1,2021-06-21_15h26.37.139,Cat face experiment_fully sample_301-600,2021.1.4,MacIntel,59.99520038
,,,,,,p,2.7839,0,41,41,41,1,41,images/flickr_cat_000271.jpg,images/flickr_cat_000200.jpg,Chenxi Liao,1,2021-06-21_15h26.37.139,Cat face experiment_fully sample_301-600,2021.1.4,MacIntel,59.99520038
,,,,,,p,0.9671,0,42,42,42,1,42,images/pixabay_cat_003638.jpg,images/pixabay_cat_003312.jpg,Chenxi Liao,1,2021-06-21_15h26.37.139,Cat face experiment_fully sample_301-600,2021.1.4,MacIntel,59.99520038
,,,,,,q,25.0245,0,43,43,43,1,43,images/pixabay_cat_003635.jpg,images/pixabay_cat_004049.jpg,Chenxi Liao,1,2021-06-21_15h26.37.139,Cat face experiment_fully sample_301-600,2021.1.4,MacIntel,59.99520038
,,,,,,q,1.8313,0,44,44,44,1,44,images/pixabay_cat_004049.jpg,images/pixabay_cat_003121.jpg,Chenxi Liao,1,2021-06-21_15h26.37.139,Cat face experiment_fully sample_301-600,2021.1.4,MacIntel,59.99520038
,,,,,,q,0.958,0,45,45,45,1,45,images/pixabay_cat_004641.jpg,images/pixabay_cat_001805.jpg,Chenxi Liao,1,2021-06-21_15h26.37.139,Cat face experiment_fully sample_301-600,2021.1.4,MacIntel,59.99520038
,,,,,,q,1.4434,0,46,46,46,1,46,images/flickr_cat_000266.jpg,images/flickr_cat_000271.jpg,Chenxi Liao,1,2021-06-21_15h26.37.139,Cat face experiment_fully sample_301-600,2021.1.4,MacIntel,59.99520038
,,,,,,q,1.8804,0,47,47,47,1,47,images/pixabay_cat_003077.jpg,images/pixabay_cat_002045.jpg,Chenxi Liao,1,2021-06-21_15h26.37.139,Cat face experiment_fully sample_301-600,2021.1.4,MacIntel,59.99520038
,,,,,,q,3.2771,0,48,48,48,1,48,images/flickr_cat_000240.jpg,images/pixabay_cat_004182.jpg,Chenxi Liao,1,2021-06-21_15h26.37.139,Cat face experiment_fully sample_301-600,2021.1.4,MacIntel,59.99520038
,,,,,,q,1.1453,0,49,49,49,1,49,images/pixabay_cat_001102.jpg,images/pixabay_cat_004489.jpg,Chenxi Liao,1,2021-06-21_15h26.37.139,Cat face experiment_fully sample_301-600,2021.1.4,MacIntel,59.99520038
,,,,,,q,2.5254,0,50,50,50,1,50,images/pixabay_cat_002690.jpg,images/pixabay_cat_003077.jpg,Chenxi Liao,1,2021-06-21_15h26.37.139,Cat face experiment_fully sample_301-600,2021.1.4,MacIntel,59.99520038
,,,,,,q,1.1931,0,51,51,51,1,51,images/pixabay_cat_003566.jpg,images/pixabay_cat_001265.jpg,Chenxi Liao,1,2021-06-21_15h26.37.139,Cat face experiment_fully sample_301-600,2021.1.4,MacIntel,59.99520038
,,,,,,p,1.1278,0,52,52,52,1,52,images/pixabay_cat_003635.jpg,images/pixabay_cat_001284.jpg,Chenxi Liao,1,2021-06-21_15h26.37.139,Cat face experiment_fully sample_301-600,2021.1.4,MacIntel,59.99520038
,,,,,,q,1.0244,0,53,53,53,1,53,images/pixabay_cat_004641.jpg,images/pixabay_cat_002614.jpg,Chenxi Liao,1,2021-06-21_15h26.37.139,Cat face experiment_fully sample_301-600,2021.1.4,MacIntel,59.99520038
,,,,,,q,0.7775,0,54,54,54,1,54,images/pixabay_cat_000120.jpg,images/pixabay_cat_000100.jpg,Chenxi Liao,1,2021-06-21_15h26.37.139,Cat face experiment_fully sample_301-600,2021.1.4,MacIntel,59.99520038
,,,,,,q,0.9246,0,55,55,55,1,55,images/pixabay_cat_000411.jpg,images/pixabay_cat_001265.jpg,Chenxi Liao,1,2021-06-21_15h26.37.139,Cat face experiment_fully sample_301-600,2021.1.4,MacIntel,59.99520038
,,,,,,q,1.7481,0,56,56,56,1,56,images/pixabay_cat_002300.jpg,images/pixabay_cat_000100.jpg,Chenxi Liao,1,2021-06-21_15h26.37.139,Cat face experiment_fully sample_301-600,2021.1.4,MacIntel,59.99520038
,,,,,,q,1.0527,0,57,57,57,1,57,images/pixabay_cat_003121.jpg,images/pixabay_cat_000100.jpg,Chenxi Liao,1,2021-06-21_15h26.37.139,Cat face experiment_fully sample_301-600,2021.1.4,MacIntel,59.99520038
,,,,,,q,2.3264,0,58,58,58,1,58,images/flickr_cat_000022.jpg,images/pixabay_cat_001597.jpg,Chenxi Liao,1,2021-06-21_15h26.37.139,Cat face experiment_fully sample_301-600,2021.1.4,MacIntel,59.99520038
,,,,,,q,1.2967,0,59,59,59,1,59,images/pixabay_cat_000043.jpg,images/pixabay_cat_002045.jpg,Chenxi Liao,1,2021-06-21_15h26.37.139,Cat face experiment_fully sample_301-600,2021.1.4,MacIntel,59.99520038
,,,,,,q,1.6587,0,60,60,60,1,60,images/pixabay_cat_001206.jpg,images/pixabay_cat_000286.jpg,Chenxi Liao,1,2021-06-21_15h26.37.139,Cat face experiment_fully sample_301-600,2021.1.4,MacIntel,59.99520038
,,,,,,q,2.0262,0,61,61,61,1,61,images/pixabay_cat_004148.jpg,images/flickr_cat_000200.jpg,Chenxi Liao,1,2021-06-21_15h26.37.139,Cat face experiment_fully sample_301-600,2021.1.4,MacIntel,59.99520038
,,,,,,q,1.0907,0,62,62,62,1,62,images/flickr_cat_000581.jpg,images/pixabay_cat_004148.jpg,Chenxi Liao,1,2021-06-21_15h26.37.139,Cat face experiment_fully sample_301-600,2021.1.4,MacIntel,59.99520038
,,,,,,q,1.1871,0,63,63,63,1,63,images/pixabay_cat_004641.jpg,images/pixabay_cat_001206.jpg,Chenxi Liao,1,2021-06-21_15h26.37.139,Cat face experiment_fully sample_301-600,2021.1.4,MacIntel,59.99520038
,,,,,,q,1.3828,0,64,64,64,1,64,images/pixabay_cat_003228.jpg,images/pixabay_cat_003186.jpg,Chenxi Liao,1,2021-06-21_15h26.37.139,Cat face experiment_fully sample_301-600,2021.1.4,MacIntel,59.99520038
,,,,,,p,5.877,0,65,65,65,1,65,images/pixabay_cat_002300.jpg,images/pixabay_cat_003312.jpg,Chenxi Liao,1,2021-06-21_15h26.37.139,Cat face experiment_fully sample_301-600,2021.1.4,MacIntel,59.99520038
,,,,,,q,2.2453,0,66,66,66,1,66,images/flickr_cat_000266.jpg,images/pixabay_cat_002979.jpg,Chenxi Liao,1,2021-06-21_15h26.37.139,Cat face experiment_fully sample_301-600,2021.1.4,MacIntel,59.99520038
,,,,,,q,1.4305,0,67,67,67,1,67,images/pixabay_cat_003425.jpg,images/pixabay_cat_004049.jpg,Chenxi Liao,1,2021-06-21_15h26.37.139,Cat face experiment_fully sample_301-600,2021.1.4,MacIntel,59.99520038
,,,,,,q,1.8421,0,68,68,68,1,68,images/pixabay_cat_000120.jpg,images/pixabay_cat_000883.jpg,Chenxi Liao,1,2021-06-21_15h26.37.139,Cat face experiment_fully sample_301-600,2021.1.4,MacIntel,59.99520038
,,,,,,q,1.5306,0,69,69,69,1,69,images/pixabay_cat_000260.jpg,images/pixabay_cat_002690.jpg,Chenxi Liao,1,2021-06-21_15h26.37.139,Cat face experiment_fully sample_301-600,2021.1.4,MacIntel,59.99520038
,,,,,,q,3.5275,0,70,70,70,1,70,images/pixabay_cat_002601.jpg,images/pixabay_cat_002614.jpg,Chenxi Liao,1,2021-06-21_15h26.37.139,Cat face experiment_fully sample_301-600,2021.1.4,MacIntel,59.99520038
,,,,,,p,1.8435,0,71,71,71,1,71,images/pixabay_cat_003566.jpg,images/pixabay_cat_004641.jpg,Chenxi Liao,1,2021-06-21_15h26.37.139,Cat face experiment_fully sample_301-600,2021.1.4,MacIntel,59.99520038
,,,,,,q,1.048,0,72,72,72,1,72,images/flickr_cat_000271.jpg,images/pixabay_cat_000100.jpg,Chenxi Liao,1,2021-06-21_15h26.37.139,Cat face experiment_fully sample_301-600,2021.1.4,MacIntel,59.99520038
,,,,,,q,1.447,0,73,73,73,1,73,images/pixabay_cat_003425.jpg,images/flickr_cat_000022.jpg,Chenxi Liao,1,2021-06-21_15h26.37.139,Cat face experiment_fully sample_301-600,2021.1.4,MacIntel,59.99520038
,,,,,,q,1.6427,0,74,74,74,1,74,images/pixabay_cat_004292.jpg,images/pixabay_cat_003121.jpg,Chenxi Liao,1,2021-06-21_15h26.37.139,Cat face experiment_fully sample_301-600,2021.1.4,MacIntel,59.99520038
,,,,,,q,1.2638,0,75,75,75,1,75,images/pixabay_cat_002690.jpg,images/pixabay_cat_000100.jpg,Chenxi Liao,1,2021-06-21_15h26.37.139,Cat face experiment_fully sample_301-600,2021.1.4,MacIntel,59.99520038
,,,,,,q,1.1643,0,76,76,76,1,76,images/flickr_cat_000266.jpg,images/pixabay_cat_002614.jpg,Chenxi Liao,1,2021-06-21_15h26.37.139,Cat face experiment_fully sample_301-600,2021.1.4,MacIntel,59.99520038
,,,,,,q,2.4094,0,77,77,77,1,77,images/pixabay_cat_001502.jpg,images/pixabay_cat_003425.jpg,Chenxi Liao,1,2021-06-21_15h26.37.139,Cat face experiment_fully sample_301-600,2021.1.4,MacIntel,59.99520038
,,,,,,q,2.1156,0,78,78,78,1,78,images/pixabay_cat_000043.jpg,images/flickr_cat_000271.jpg,Chenxi Liao,1,2021-06-21_15h26.37.139,Cat face experiment_fully sample_301-600,2021.1.4,MacIntel,59.99520038
,,,,,,q,1.6109,0,79,79,79,1,79,images/pixabay_cat_000260.jpg,images/pixabay_cat_003566.jpg,Chenxi Liao,1,2021-06-21_15h26.37.139,Cat face experiment_fully sample_301-600,2021.1.4,MacIntel,59.99520038
,,,,,,p,1.0647,0,80,80,80,1,80,images/pixabay_cat_003186.jpg,images/pixabay_cat_004148.jpg,Chenxi Liao,1,2021-06-21_15h26.37.139,Cat face experiment_fully sample_301-600,2021.1.4,MacIntel,59.99520038
,,,,,,q,2.7179,0,81,81,81,1,81,images/pixabay_cat_004049.jpg,images/pixabay_cat_000883.jpg,Chenxi Liao,1,2021-06-21_15h26.37.139,Cat face experiment_fully sample_301-600,2021.1.4,MacIntel,59.99520038
,,,,,,q,1.7441,0,82,82,82,1,82,images/pixabay_cat_000411.jpg,images/pixabay_cat_001502.jpg,Chenxi Liao,1,2021-06-21_15h26.37.139,Cat face experiment_fully sample_301-600,2021.1.4,MacIntel,59.99520038
,,,,,,q,1.2362,0,83,83,83,1,83,images/pixabay_cat_001597.jpg,images/pixabay_cat_003638.jpg,Chenxi Liao,1,2021-06-21_15h26.37.139,Cat face experiment_fully sample_301-600,2021.1.4,MacIntel,59.99520038
,,,,,,q,0.8935,0,84,84,84,1,84,images/pixabay_cat_001102.jpg,images/pixabay_cat_002300.jpg,Chenxi Liao,1,2021-06-21_15h26.37.139,Cat face experiment_fully sample_301-600,2021.1.4,MacIntel,59.99520038
,,,,,,q,1.1428,0,85,85,85,1,85,images/flickr_cat_000206.jpg,images/pixabay_cat_001805.jpg,Chenxi Liao,1,2021-06-21_15h26.37.139,Cat face experiment_fully sample_301-600,2021.1.4,MacIntel,59.99520038
,,,,,,p,1.5421,0,86,86,86,1,86,images/pixabay_cat_001206.jpg,images/pixabay_cat_002930.jpg,Chenxi Liao,1,2021-06-21_15h26.37.139,Cat face experiment_fully sample_301-600,2021.1.4,MacIntel,59.99520038
,,,,,,p,2.6763,0,87,87,87,1,87,images/pixabay_cat_004292.jpg,images/pixabay_cat_001102.jpg,Chenxi Liao,1,2021-06-21_15h26.37.139,Cat face experiment_fully sample_301-600,2021.1.4,MacIntel,59.99520038
,,,,,,p,1.8421,0,88,88,88,1,88,images/pixabay_cat_003927.jpg,images/pixabay_cat_000286.jpg,Chenxi Liao,1,2021-06-21_15h26.37.139,Cat face experiment_fully sample_301-600,2021.1.4,MacIntel,59.99520038
,,,,,,q,2.0199,0,89,89,89,1,89,images/pixabay_cat_004641.jpg,images/pixabay_cat_001304.jpg,Chenxi Liao,1,2021-06-21_15h26.37.139,Cat face experiment_fully sample_301-600,2021.1.4,MacIntel,59.99520038
,,,,,,q,0.9297,0,90,90,90,1,90,images/pixabay_cat_002045.jpg,images/pixabay_cat_001160.jpg,Chenxi Liao,1,2021-06-21_15h26.37.139,Cat face experiment_fully sample_301-600,2021.1.4,MacIntel,59.99520038
,,,,,,p,6.2032,0,91,91,91,1,91,images/pixabay_cat_003566.jpg,images/pixabay_cat_002045.jpg,Chenxi Liao,1,2021-06-21_15h26.37.139,Cat face experiment_fully sample_301-600,2021.1.4,MacIntel,59.99520038
,,,,,,q,1.5261,0,92,92,92,1,92,images/pixabay_cat_000043.jpg,images/pixabay_cat_004489.jpg,Chenxi Liao,1,2021-06-21_15h26.37.139,Cat face experiment_fully sample_301-600,2021.1.4,MacIntel,59.99520038
,,,,,,p,1.2202,0,93,93,93,1,93,images/pixabay_cat_001597.jpg,images/pixabay_cat_004049.jpg,Chenxi Liao,1,2021-06-21_15h26.37.139,Cat face experiment_fully sample_301-600,2021.1.4,MacIntel,59.99520038
,,,,,,q,0.8957,0,94,94,94,1,94,images/flickr_cat_000581.jpg,images/pixabay_cat_003077.jpg,Chenxi Liao,1,2021-06-21_15h26.37.139,Cat face experiment_fully sample_301-600,2021.1.4,MacIntel,59.99520038
,,,,,,q,0.8471,0,95,95,95,1,95,images/pixabay_cat_000260.jpg,images/pixabay_cat_003077.jpg,Chenxi Liao,1,2021-06-21_15h26.37.139,Cat face experiment_fully sample_301-600,2021.1.4,MacIntel,59.99520038
,,,,,,q,5.9781,0,96,96,96,1,96,images/pixabay_cat_000043.jpg,images/pixabay_cat_001206.jpg,Chenxi Liao,1,2021-06-21_15h26.37.139,Cat face experiment_fully sample_301-600,2021.1.4,MacIntel,59.99520038
,,,,,,q,0.9598,0,97,97,97,1,97,images/pixabay_cat_003228.jpg,images/pixabay_cat_002601.jpg,Chenxi Liao,1,2021-06-21_15h26.37.139,Cat face experiment_fully sample_301-600,2021.1.4,MacIntel,59.99520038
,,,,,,p,1.4108,0,98,98,98,1,98,images/pixabay_cat_003635.jpg,images/pixabay_cat_003425.jpg,Chenxi Liao,1,2021-06-21_15h26.37.139,Cat face experiment_fully sample_301-600,2021.1.4,MacIntel,59.99520038
,,,,,,q,1.7491,0,99,99,99,1,99,images/pixabay_cat_003312.jpg,images/pixabay_cat_001805.jpg,Chenxi Liao,1,2021-06-21_15h26.37.139,Cat face experiment_fully sample_301-600,2021.1.4,MacIntel,59.99520038
,,,,,,q,3.4766,0,100,100,100,1,100,images/pixabay_cat_004182.jpg,images/pixabay_cat_000883.jpg,Chenxi Liao,1,2021-06-21_15h26.37.139,Cat face experiment_fully sample_301-600,2021.1.4,MacIntel,59.99520038
,,,,,,q,0.9128,0,101,101,101,1,101,images/pixabay_cat_003566.jpg,images/pixabay_cat_003638.jpg,Chenxi Liao,1,2021-06-21_15h26.37.139,Cat face experiment_fully sample_301-600,2021.1.4,MacIntel,59.99520038
,,,,,,p,1.2917,0,102,102,102,1,102,images/pixabay_cat_004292.jpg,images/pixabay_cat_001284.jpg,Chenxi Liao,1,2021-06-21_15h26.37.139,Cat face experiment_fully sample_301-600,2021.1.4,MacIntel,59.99520038
,,,,,,q,0.994,0,103,103,103,1,103,images/pixabay_cat_000043.jpg,images/flickr_cat_000022.jpg,Chenxi Liao,1,2021-06-21_15h26.37.139,Cat face experiment_fully sample_301-600,2021.1.4,MacIntel,59.99520038
,,,,,,q,0.8784,0,104,104,104,1,104,images/pixabay_cat_000260.jpg,images/pixabay_cat_002601.jpg,Chenxi Liao,1,2021-06-21_15h26.37.139,Cat face experiment_fully sample_301-600,2021.1.4,MacIntel,59.99520038
,,,,,,q,1.433,0,105,105,105,1,105,images/pixabay_cat_001304.jpg,images/pixabay_cat_000883.jpg,Chenxi Liao,1,2021-06-21_15h26.37.139,Cat face experiment_fully sample_301-600,2021.1.4,MacIntel,59.99520038
,,,,,,q,1.0444,0,106,106,106,1,106,images/pixabay_cat_001102.jpg,images/pixabay_cat_001160.jpg,Chenxi Liao,1,2021-06-21_15h26.37.139,Cat face experiment_fully sample_301-600,2021.1.4,MacIntel,59.99520038
,,,,,,q,0.9598,0,107,107,107,1,107,images/flickr_cat_000581.jpg,images/flickr_cat_000240.jpg,Chenxi Liao,1,2021-06-21_15h26.37.139,Cat face experiment_fully sample_301-600,2021.1.4,MacIntel,59.99520038
,,,,,,p,1.5482,0,108,108,108,1,108,images/pixabay_cat_001265.jpg,images/pixabay_cat_001178.jpg,Chenxi Liao,1,2021-06-21_15h26.37.139,Cat face experiment_fully sample_301-600,2021.1.4,MacIntel,59.99520038
,,,,,,p,2.6082,0,109,109,109,1,109,images/pixabay_cat_003566.jpg,images/flickr_cat_000285.jpg,Chenxi Liao,1,2021-06-21_15h26.37.139,Cat face experiment_fully sample_301-600,2021.1.4,MacIntel,59.99520038
,,,,,,p,1.3313,0,110,110,110,1,110,images/pixabay_cat_003121.jpg,images/pixabay_cat_002930.jpg,Chenxi Liao,1,2021-06-21_15h26.37.139,Cat face experiment_fully sample_301-600,2021.1.4,MacIntel,59.99520038
,,,,,,p,2.4699,0,111,111,111,1,111,images/pixabay_cat_003566.jpg,images/flickr_cat_000271.jpg,Chenxi Liao,1,2021-06-21_15h26.37.139,Cat face experiment_fully sample_301-600,2021.1.4,MacIntel,59.99520038
,,,,,,q,1.3606,0,112,112,112,1,112,images/flickr_cat_000200.jpg,images/pixabay_cat_000883.jpg,Chenxi Liao,1,2021-06-21_15h26.37.139,Cat face experiment_fully sample_301-600,2021.1.4,MacIntel,59.99520038
,,,,,,q,1.9946,0,113,113,113,1,113,images/pixabay_cat_001102.jpg,images/flickr_cat_000206.jpg,Chenxi Liao,1,2021-06-21_15h26.37.139,Cat face experiment_fully sample_301-600,2021.1.4,MacIntel,59.99520038
,,,,,,q,4.5775,0,114,114,114,1,114,images/pixabay_cat_003312.jpg,images/pixabay_cat_000883.jpg,Chenxi Liao,1,2021-06-21_15h26.37.139,Cat face experiment_fully sample_301-600,2021.1.4,MacIntel,59.99520038
,,,,,,q,1.1841,0,115,115,115,1,115,images/flickr_cat_000581.jpg,images/pixabay_cat_000100.jpg,Chenxi Liao,1,2021-06-21_15h26.37.139,Cat face experiment_fully sample_301-600,2021.1.4,MacIntel,59.99520038
,,,,,,p,1.517,0,116,116,116,1,116,images/pixabay_cat_003425.jpg,images/flickr_cat_000240.jpg,Chenxi Liao,1,2021-06-21_15h26.37.139,Cat face experiment_fully sample_301-600,2021.1.4,MacIntel,59.99520038
,,,,,,q,1.1971,0,117,117,117,1,117,images/flickr_cat_000285.jpg,images/pixabay_cat_004049.jpg,Chenxi Liao,1,2021-06-21_15h26.37.139,Cat face experiment_fully sample_301-600,2021.1.4,MacIntel,59.99520038
,,,,,,q,1.5083,0,118,118,118,1,118,images/pixabay_cat_000260.jpg,images/pixabay_cat_003312.jpg,Chenxi Liao,1,2021-06-21_15h26.37.139,Cat face experiment_fully sample_301-600,2021.1.4,MacIntel,59.99520038
,,,,,,q,0.8134,0,119,119,119,1,119,images/pixabay_cat_003228.jpg,images/pixabay_cat_003312.jpg,Chenxi Liao,1,2021-06-21_15h26.37.139,Cat face experiment_fully sample_301-600,2021.1.4,MacIntel,59.99520038
,,,,,,q,1.2809,0,120,120,120,1,120,images/pixabay_cat_004148.jpg,images/pixabay_cat_000883.jpg,Chenxi Liao,1,2021-06-21_15h26.37.139,Cat face experiment_fully sample_301-600,2021.1.4,MacIntel,59.99520038
,,,,,,p,2.1454,0,121,121,121,1,121,images/pixabay_cat_001102.jpg,images/pixabay_cat_002045.jpg,Chenxi Liao,1,2021-06-21_15h26.37.139,Cat face experiment_fully sample_301-600,2021.1.4,MacIntel,59.99520038
,,,,,,p,1.6986,0,122,122,122,1,122,images/pixabay_cat_002979.jpg,images/flickr_cat_000271.jpg,Chenxi Liao,1,2021-06-21_15h26.37.139,Cat face experiment_fully sample_301-600,2021.1.4,MacIntel,59.99520038
,,,,,,q,0.8294,0,123,123,123,1,123,images/pixabay_cat_003425.jpg,images/pixabay_cat_000100.jpg,Chenxi Liao,1,2021-06-21_15h26.37.139,Cat face experiment_fully sample_301-600,2021.1.4,MacIntel,59.99520038
,,,,,,p,1.4272,0,124,124,124,1,124,images/pixabay_cat_002690.jpg,images/flickr_cat_000022.jpg,Chenxi Liao,1,2021-06-21_15h26.37.139,Cat face experiment_fully sample_301-600,2021.1.4,MacIntel,59.99520038
,,,,,,p,1.6168,0,125,125,125,1,125,images/flickr_cat_000271.jpg,images/pixabay_cat_000883.jpg,Chenxi Liao,1,2021-06-21_15h26.37.139,Cat face experiment_fully sample_301-600,2021.1.4,MacIntel,59.99520038
,,,,,,p,1.0795,0,126,126,126,1,126,images/flickr_cat_000083.jpg,images/pixabay_cat_004182.jpg,Chenxi Liao,1,2021-06-21_15h26.37.139,Cat face experiment_fully sample_301-600,2021.1.4,MacIntel,59.99520038
,,,,,,p,1.9964,0,127,127,127,1,127,images/pixabay_cat_004489.jpg,images/pixabay_cat_003312.jpg,Chenxi Liao,1,2021-06-21_15h26.37.139,Cat face experiment_fully sample_301-600,2021.1.4,MacIntel,59.99520038
,,,,,,p,1.8348,0,128,128,128,1,128,images/pixabay_cat_003121.jpg,images/pixabay_cat_001284.jpg,Chenxi Liao,1,2021-06-21_15h26.37.139,Cat face experiment_fully sample_301-600,2021.1.4,MacIntel,59.99520038
,,,,,,p,0.9306,0,129,129,129,1,129,images/pixabay_cat_002300.jpg,images/pixabay_cat_001862.jpg,Chenxi Liao,1,2021-06-21_15h26.37.139,Cat face experiment_fully sample_301-600,2021.1.4,MacIntel,59.99520038
,,,,,,p,2.0639,0,130,130,130,1,130,images/pixabay_cat_003186.jpg,images/pixabay_cat_003927.jpg,Chenxi Liao,1,2021-06-21_15h26.37.139,Cat face experiment_fully sample_301-600,2021.1.4,MacIntel,59.99520038
,,,,,,p,1.1177,0,131,131,131,1,131,images/pixabay_cat_001265.jpg,images/pixabay_cat_002045.jpg,Chenxi Liao,1,2021-06-21_15h26.37.139,Cat face experiment_fully sample_301-600,2021.1.4,MacIntel,59.99520038
,,,,,,q,1.4634,0,132,132,132,1,132,images/pixabay_cat_000411.jpg,images/pixabay_cat_001160.jpg,Chenxi Liao,1,2021-06-21_15h26.37.139,Cat face experiment_fully sample_301-600,2021.1.4,MacIntel,59.99520038
,,,,,,q,3.7796,0,133,133,133,1,133,images/pixabay_cat_000411.jpg,images/flickr_cat_000206.jpg,Chenxi Liao,1,2021-06-21_15h26.37.139,Cat face experiment_fully sample_301-600,2021.1.4,MacIntel,59.99520038
,,,,,,q,1.2047,0,134,134,134,1,134,images/flickr_cat_000022.jpg,images/pixabay_cat_002300.jpg,Chenxi Liao,1,2021-06-21_15h26.37.139,Cat face experiment_fully sample_301-600,2021.1.4,MacIntel,59.99520038
,,,,,,p,1.7285,0,135,135,135,1,135,images/pixabay_cat_004292.jpg,images/pixabay_cat_000260.jpg,Chenxi Liao,1,2021-06-21_15h26.37.139,Cat face experiment_fully sample_301-600,2021.1.4,MacIntel,59.99520038
,,,,,,q,1.1945,0,136,136,136,1,136,images/flickr_cat_000285.jpg,images/pixabay_cat_003927.jpg,Chenxi Liao,1,2021-06-21_15h26.37.139,Cat face experiment_fully sample_301-600,2021.1.4,MacIntel,59.99520038
,,,,,,q,1.4501,0,137,137,137,1,137,images/pixabay_cat_001502.jpg,images/flickr_cat_000206.jpg,Chenxi Liao,1,2021-06-21_15h26.37.139,Cat face experiment_fully sample_301-600,2021.1.4,MacIntel,59.99520038
,,,,,,q,4.5518,0,138,138,138,1,138,images/flickr_cat_000083.jpg,images/pixabay_cat_003121.jpg,Chenxi Liao,1,2021-06-21_15h26.37.139,Cat face experiment_fully sample_301-600,2021.1.4,MacIntel,59.99520038
,,,,,,q,1.7291,0,139,139,139,1,139,images/pixabay_cat_001160.jpg,images/pixabay_cat_002979.jpg,Chenxi Liao,1,2021-06-21_15h26.37.139,Cat face experiment_fully sample_301-600,2021.1.4,MacIntel,59.99520038
,,,,,,p,1.0775,0,140,140,140,1,140,images/pixabay_cat_004292.jpg,images/pixabay_cat_003425.jpg,Chenxi Liao,1,2021-06-21_15h26.37.139,Cat face experiment_fully sample_301-600,2021.1.4,MacIntel,59.99520038
,,,,,,q,1.1785,0,141,141,141,1,141,images/pixabay_cat_004148.jpg,images/pixabay_cat_001178.jpg,Chenxi Liao,1,2021-06-21_15h26.37.139,Cat face experiment_fully sample_301-600,2021.1.4,MacIntel,59.99520038
,,,,,,p,2.0753,0,142,142,142,1,142,images/pixabay_cat_003927.jpg,images/pixabay_cat_001304.jpg,Chenxi Liao,1,2021-06-21_15h26.37.139,Cat face experiment_fully sample_301-600,2021.1.4,MacIntel,59.99520038
,,,,,,q,1.9111,0,143,143,143,1,143,images/pixabay_cat_003121.jpg,images/pixabay_cat_000883.jpg,Chenxi Liao,1,2021-06-21_15h26.37.139,Cat face experiment_fully sample_301-600,2021.1.4,MacIntel,59.99520038
,,,,,,p,1.4349,0,144,144,144,1,144,images/pixabay_cat_000043.jpg,images/flickr_cat_000266.jpg,Chenxi Liao,1,2021-06-21_15h26.37.139,Cat face experiment_fully sample_301-600,2021.1.4,MacIntel,59.99520038
,,,,,,q,1.3317,0,145,145,145,1,145,images/flickr_cat_000240.jpg,images/pixabay_cat_003638.jpg,Chenxi Liao,1,2021-06-21_15h26.37.139,Cat face experiment_fully sample_301-600,2021.1.4,MacIntel,59.99520038
,,,,,,q,1.0639,0,146,146,146,1,146,images/pixabay_cat_000120.jpg,images/pixabay_cat_003638.jpg,Chenxi Liao,1,2021-06-21_15h26.37.139,Cat face experiment_fully sample_301-600,2021.1.4,MacIntel,59.99520038
,,,,,,q,2.1313,0,147,147,147,1,147,images/pixabay_cat_004292.jpg,images/flickr_cat_000266.jpg,Chenxi Liao,1,2021-06-21_15h26.37.139,Cat face experiment_fully sample_301-600,2021.1.4,MacIntel,59.99520038
,,,,,,q,1.045,0,148,148,148,1,148,images/flickr_cat_000581.jpg,images/pixabay_cat_001160.jpg,Chenxi Liao,1,2021-06-21_15h26.37.139,Cat face experiment_fully sample_301-600,2021.1.4,MacIntel,59.99520038
,,,,,,q,1.0277,0,149,149,149,1,149,images/pixabay_cat_004641.jpg,images/pixabay_cat_001265.jpg,Chenxi Liao,1,2021-06-21_15h26.37.139,Cat face experiment_fully sample_301-600,2021.1.4,MacIntel,59.99520038
,,,,,,p,1.0256,0,150,150,150,1,150,images/pixabay_cat_002601.jpg,images/pixabay_cat_001160.jpg,Chenxi Liao,1,2021-06-21_15h26.37.139,Cat face experiment_fully sample_301-600,2021.1.4,MacIntel,59.99520038
,,,,,,q,1.7672,0,151,151,151,1,151,images/pixabay_cat_001502.jpg,images/pixabay_cat_001597.jpg,Chenxi Liao,1,2021-06-21_15h26.37.139,Cat face experiment_fully sample_301-600,2021.1.4,MacIntel,59.99520038
,,,,,,p,1.146,0,152,152,152,1,152,images/pixabay_cat_001502.jpg,images/pixabay_cat_002930.jpg,Chenxi Liao,1,2021-06-21_15h26.37.139,Cat face experiment_fully sample_301-600,2021.1.4,MacIntel,59.99520038
,,,,,,q,2.5632,0,153,153,153,1,153,images/pixabay_cat_002045.jpg,images/flickr_cat_000240.jpg,Chenxi Liao,1,2021-06-21_15h26.37.139,Cat face experiment_fully sample_301-600,2021.1.4,MacIntel,59.99520038
,,,,,,q,0.9029,0,154,154,154,1,154,images/flickr_cat_000266.jpg,images/pixabay_cat_003638.jpg,Chenxi Liao,1,2021-06-21_15h26.37.139,Cat face experiment_fully sample_301-600,2021.1.4,MacIntel,59.99520038
,,,,,,q,1.4489,0,155,155,155,1,155,images/pixabay_cat_004049.jpg,images/pixabay_cat_004148.jpg,Chenxi Liao,1,2021-06-21_15h26.37.139,Cat face experiment_fully sample_301-600,2021.1.4,MacIntel,59.99520038
,,,,,,p,2.0307,0,156,156,156,1,156,images/pixabay_cat_002690.jpg,images/pixabay_cat_002045.jpg,Chenxi Liao,1,2021-06-21_15h26.37.139,Cat face experiment_fully sample_301-600,2021.1.4,MacIntel,59.99520038
,,,,,,p,1.733,0,157,157,157,1,157,images/pixabay_cat_001160.jpg,images/pixabay_cat_004148.jpg,Chenxi Liao,1,2021-06-21_15h26.37.139,Cat face experiment_fully sample_301-600,2021.1.4,MacIntel,59.99520038
,,,,,,q,2.2142,0,158,158,158,1,158,images/flickr_cat_000022.jpg,images/flickr_cat_000240.jpg,Chenxi Liao,1,2021-06-21_15h26.37.139,Cat face experiment_fully sample_301-600,2021.1.4,MacIntel,59.99520038
,,,,,,p,2.8111,0,159,159,159,1,159,images/pixabay_cat_003635.jpg,images/pixabay_cat_001178.jpg,Chenxi Liao,1,2021-06-21_15h26.37.139,Cat face experiment_fully sample_301-600,2021.1.4,MacIntel,59.99520038
,,,,,,p,1.1769,0,160,160,160,1,160,images/pixabay_cat_003635.jpg,images/pixabay_cat_003228.jpg,Chenxi Liao,1,2021-06-21_15h26.37.139,Cat face experiment_fully sample_301-600,2021.1.4,MacIntel,59.99520038
,,,,,,q,1.0814,0,161,161,161,1,161,images/flickr_cat_000581.jpg,images/pixabay_cat_001178.jpg,Chenxi Liao,1,2021-06-21_15h26.37.139,Cat face experiment_fully sample_301-600,2021.1.4,MacIntel,59.99520038
,,,,,,p,1.4436,0,162,162,162,1,162,images/pixabay_cat_001160.jpg,images/pixabay_cat_001284.jpg,Chenxi Liao,1,2021-06-21_15h26.37.139,Cat face experiment_fully sample_301-600,2021.1.4,MacIntel,59.99520038
,,,,,,p,4.6648,0,163,163,163,1,163,images/flickr_cat_000266.jpg,images/pixabay_cat_002930.jpg,Chenxi Liao,1,2021-06-21_15h26.37.139,Cat face experiment_fully sample_301-600,2021.1.4,MacIntel,59.99520038
,,,,,,q,1.8832,0,164,164,164,1,164,images/pixabay_cat_002601.jpg,images/pixabay_cat_003186.jpg,Chenxi Liao,1,2021-06-21_15h26.37.139,Cat face experiment_fully sample_301-600,2021.1.4,MacIntel,59.99520038
,,,,,,p,1.9104,0,165,165,165,1,165,images/pixabay_cat_002690.jpg,images/pixabay_cat_004641.jpg,Chenxi Liao,1,2021-06-21_15h26.37.139,Cat face experiment_fully sample_301-600,2021.1.4,MacIntel,59.99520038
,,,,,,q,1.5089,0,166,166,166,1,166,images/pixabay_cat_000260.jpg,images/pixabay_cat_001805.jpg,Chenxi Liao,1,2021-06-21_15h26.37.139,Cat face experiment_fully sample_301-600,2021.1.4,MacIntel,59.99520038
,,,,,,q,1.06,0,167,167,167,1,167,images/pixabay_cat_003228.jpg,images/flickr_cat_000206.jpg,Chenxi Liao,1,2021-06-21_15h26.37.139,Cat face experiment_fully sample_301-600,2021.1.4,MacIntel,59.99520038
,,,,,,q,1.6638,0,168,168,168,1,168,images/flickr_cat_000240.jpg,images/pixabay_cat_003121.jpg,Chenxi Liao,1,2021-06-21_15h26.37.139,Cat face experiment_fully sample_301-600,2021.1.4,MacIntel,59.99520038
,,,,,,q,1.6119,0,169,169,169,1,169,images/pixabay_cat_004292.jpg,images/pixabay_cat_001304.jpg,Chenxi Liao,1,2021-06-21_15h26.37.139,Cat face experiment_fully sample_301-600,2021.1.4,MacIntel,59.99520038
,,,,,,q,0.9789,0,170,170,170,1,170,images/pixabay_cat_002601.jpg,images/pixabay_cat_001265.jpg,Chenxi Liao,1,2021-06-21_15h26.37.139,Cat face experiment_fully sample_301-600,2021.1.4,MacIntel,59.99520038
,,,,,,q,1.1619,0,171,171,171,1,171,images/pixabay_cat_001597.jpg,images/flickr_cat_000206.jpg,Chenxi Liao,1,2021-06-21_15h26.37.139,Cat face experiment_fully sample_301-600,2021.1.4,MacIntel,59.99520038
,,,,,,p,0.9641,0,172,172,172,1,172,images/pixabay_cat_002979.jpg,images/pixabay_cat_003312.jpg,Chenxi Liao,1,2021-06-21_15h26.37.139,Cat face experiment_fully sample_301-600,2021.1.4,MacIntel,59.99520038
,,,,,,q,1.0669,0,173,173,173,1,173,images/pixabay_cat_003927.jpg,images/pixabay_cat_001178.jpg,Chenxi Liao,1,2021-06-21_15h26.37.139,Cat face experiment_fully sample_301-600,2021.1.4,MacIntel,59.99520038
,,,,,,q,0.9132,0,174,174,174,1,174,images/flickr_cat_000581.jpg,images/flickr_cat_000200.jpg,Chenxi Liao,1,2021-06-21_15h26.37.139,Cat face experiment_fully sample_301-600,2021.1.4,MacIntel,59.99520038
,,,,,,p,1.283,0,175,175,175,1,175,images/pixabay_cat_002601.jpg,images/pixabay_cat_000883.jpg,Chenxi Liao,1,2021-06-21_15h26.37.139,Cat face experiment_fully sample_301-600,2021.1.4,MacIntel,59.99520038
,,,,,,q,0.761,0,176,176,176,1,176,images/flickr_cat_000581.jpg,images/pixabay_cat_001206.jpg,Chenxi Liao,1,2021-06-21_15h26.37.139,Cat face experiment_fully sample_301-600,2021.1.4,MacIntel,59.99520038
,,,,,,q,1.7147,0,177,177,177,1,177,images/pixabay_cat_002614.jpg,images/pixabay_cat_002979.jpg,Chenxi Liao,1,2021-06-21_15h26.37.139,Cat face experiment_fully sample_301-600,2021.1.4,MacIntel,59.99520038
,,,,,,q,1.6326,0,178,178,178,1,178,images/pixabay_cat_000043.jpg,images/flickr_cat_000200.jpg,Chenxi Liao,1,2021-06-21_15h26.37.139,Cat face experiment_fully sample_301-600,2021.1.4,MacIntel,59.99520038
,,,,,,q,0.9496,0,179,179,179,1,179,images/pixabay_cat_001805.jpg,images/pixabay_cat_000100.jpg,Chenxi Liao,1,2021-06-21_15h26.37.139,Cat face experiment_fully sample_301-600,2021.1.4,MacIntel,59.99520038
,,,,,,p,1.0785,0,180,180,180,1,180,images/pixabay_cat_003638.jpg,images/pixabay_cat_004182.jpg,Chenxi Liao,1,2021-06-21_15h26.37.139,Cat face experiment_fully sample_301-600,2021.1.4,MacIntel,59.99520038
,,,,,,q,1.0598,0,181,181,181,1,181,images/flickr_cat_000240.jpg,images/pixabay_cat_002300.jpg,Chenxi Liao,1,2021-06-21_15h26.37.139,Cat face experiment_fully sample_301-600,2021.1.4,MacIntel,59.99520038
,,,,,,p,1.3123,0,182,182,182,1,182,images/pixabay_cat_000260.jpg,images/pixabay_cat_000120.jpg,Chenxi Liao,1,2021-06-21_15h26.37.139,Cat face experiment_fully sample_301-600,2021.1.4,MacIntel,59.99520038
,,,,,,p,1.0501,0,183,183,183,1,183,images/pixabay_cat_003077.jpg,images/flickr_cat_000206.jpg,Chenxi Liao,1,2021-06-21_15h26.37.139,Cat face experiment_fully sample_301-600,2021.1.4,MacIntel,59.99520038
,,,,,,q,1.9129,0,184,184,184,1,184,images/pixabay_cat_001102.jpg,images/pixabay_cat_000286.jpg,Chenxi Liao,1,2021-06-21_15h26.37.139,Cat face experiment_fully sample_301-600,2021.1.4,MacIntel,59.99520038
,,,,,,p,1.7625,0,185,185,185,1,185,images/pixabay_cat_004489.jpg,images/flickr_cat_000200.jpg,Chenxi Liao,1,2021-06-21_15h26.37.139,Cat face experiment_fully sample_301-600,2021.1.4,MacIntel,59.99520038
,,,,,,q,1.9308,0,186,186,186,1,186,images/pixabay_cat_004489.jpg,images/pixabay_cat_001206.jpg,Chenxi Liao,1,2021-06-21_15h26.37.139,Cat face experiment_fully sample_301-600,2021.1.4,MacIntel,59.99520038
,,,,,,p,2.1613,0,187,187,187,1,187,images/pixabay_cat_000411.jpg,images/flickr_cat_000022.jpg,Chenxi Liao,1,2021-06-21_15h26.37.139,Cat face experiment_fully sample_301-600,2021.1.4,MacIntel,59.99520038
,,,,,,q,1.0271,0,188,188,188,1,188,images/pixabay_cat_003425.jpg,images/flickr_cat_000206.jpg,Chenxi Liao,1,2021-06-21_15h26.37.139,Cat face experiment_fully sample_301-600,2021.1.4,MacIntel,59.99520038
,,,,,,q,0.7793,0,189,189,189,1,189,images/pixabay_cat_000120.jpg,images/flickr_cat_000206.jpg,Chenxi Liao,1,2021-06-21_15h26.37.139,Cat face experiment_fully sample_301-600,2021.1.4,MacIntel,59.99520038
,,,,,,q,0.8318,0,190,190,190,1,190,images/flickr_cat_000581.jpg,images/flickr_cat_000271.jpg,Chenxi Liao,1,2021-06-21_15h26.37.139,Cat face experiment_fully sample_301-600,2021.1.4,MacIntel,59.99520038
,,,,,,q,2.8402,0,191,191,191,1,191,images/pixabay_cat_003425.jpg,images/pixabay_cat_000883.jpg,Chenxi Liao,1,2021-06-21_15h26.37.139,Cat face experiment_fully sample_301-600,2021.1.4,MacIntel,59.99520038
,,,,,,q,1.4487,0,192,192,192,1,192,images/pixabay_cat_003566.jpg,images/pixabay_cat_004049.jpg,Chenxi Liao,1,2021-06-21_15h26.37.139,Cat face experiment_fully sample_301-600,2021.1.4,MacIntel,59.99520038
,,,,,,p,0.9131,0,193,193,193,1,193,images/pixabay_cat_003566.jpg,images/pixabay_cat_000120.jpg,Chenxi Liao,1,2021-06-21_15h26.37.139,Cat face experiment_fully sample_301-600,2021.1.4,MacIntel,59.99520038
,,,,,,p,2.8494,0,194,194,194,1,194,images/pixabay_cat_002614.jpg,images/pixabay_cat_001178.jpg,Chenxi Liao,1,2021-06-21_15h26.37.139,Cat face experiment_fully sample_301-600,2021.1.4,MacIntel,59.99520038
,,,,,,q,0.7503,0,195,195,195,1,195,images/flickr_cat_000581.jpg,images/pixabay_cat_001265.jpg,Chenxi Liao,1,2021-06-21_15h26.37.139,Cat face experiment_fully sample_301-600,2021.1.4,MacIntel,59.99520038
,,,,,,p,2.7847,0,196,196,196,1,196,images/pixabay_cat_002601.jpg,images/pixabay_cat_003566.jpg,Chenxi Liao,1,2021-06-21_15h26.37.139,Cat face experiment_fully sample_301-600,2021.1.4,MacIntel,59.99520038
,,,,,,p,1.4619,0,197,197,197,1,197,images/flickr_cat_000266.jpg,images/pixabay_cat_000120.jpg,Chenxi Liao,1,2021-06-21_15h26.37.139,Cat face experiment_fully sample_301-600,2021.1.4,MacIntel,59.99520038
,,,,,,p,2.6944,0,198,198,198,1,198,images/pixabay_cat_003566.jpg,images/pixabay_cat_001304.jpg,Chenxi Liao,1,2021-06-21_15h26.37.139,Cat face experiment_fully sample_301-600,2021.1.4,MacIntel,59.99520038
,,,,,,p,2.1174,0,199,199,199,1,199,images/flickr_cat_000022.jpg,images/pixabay_cat_000120.jpg,Chenxi Liao,1,2021-06-21_15h26.37.139,Cat face experiment_fully sample_301-600,2021.1.4,MacIntel,59.99520038
,,,,,,q,0.8441,0,200,200,200,1,200,images/flickr_cat_000581.jpg,images/pixabay_cat_002300.jpg,Chenxi Liao,1,2021-06-21_15h26.37.139,Cat face experiment_fully sample_301-600,2021.1.4,MacIntel,59.99520038
,,,,,,q,1.2925,0,201,201,201,1,201,images/pixabay_cat_002601.jpg,images/pixabay_cat_000286.jpg,Chenxi Liao,1,2021-06-21_15h26.37.139,Cat face experiment_fully sample_301-600,2021.1.4,MacIntel,59.99520038
,,,,,,p,1.2257,0,202,202,202,1,202,images/pixabay_cat_002300.jpg,images/pixabay_cat_000883.jpg,Chenxi Liao,1,2021-06-21_15h26.37.139,Cat face experiment_fully sample_301-600,2021.1.4,MacIntel,59.99520038
,,,,,,p,1.6701,0,203,203,203,1,203,images/pixabay_cat_004292.jpg,images/pixabay_cat_003312.jpg,Chenxi Liao,1,2021-06-21_15h26.37.139,Cat face experiment_fully sample_301-600,2021.1.4,MacIntel,59.99520038
,,,,,,q,0.9609,0,204,204,204,1,204,images/pixabay_cat_000260.jpg,images/pixabay_cat_001265.jpg,Chenxi Liao,1,2021-06-21_15h26.37.139,Cat face experiment_fully sample_301-600,2021.1.4,MacIntel,59.99520038
,,,,,,q,0.8957,0,205,205,205,1,205,images/flickr_cat_000285.jpg,images/pixabay_cat_002614.jpg,Chenxi Liao,1,2021-06-21_15h26.37.139,Cat face experiment_fully sample_301-600,2021.1.4,MacIntel,59.99520038
,,,,,,q,1.0505,0,206,206,206,1,206,images/pixabay_cat_000260.jpg,images/pixabay_cat_004641.jpg,Chenxi Liao,1,2021-06-21_15h26.37.139,Cat face experiment_fully sample_301-600,2021.1.4,MacIntel,59.99520038
,,,,,,p,2.9776,0,207,207,207,1,207,images/flickr_cat_000240.jpg,images/flickr_cat_000200.jpg,Chenxi Liao,1,2021-06-21_15h26.37.139,Cat face experiment_fully sample_301-600,2021.1.4,MacIntel,59.99520038
,,,,,,q,0.7773,0,208,208,208,1,208,images/pixabay_cat_003638.jpg,images/pixabay_cat_000100.jpg,Chenxi Liao,1,2021-06-21_15h26.37.139,Cat face experiment_fully sample_301-600,2021.1.4,MacIntel,59.99520038
,,,,,,p,1.7093,0,209,209,209,1,209,images/pixabay_cat_004148.jpg,images/pixabay_cat_001304.jpg,Chenxi Liao,1,2021-06-21_15h26.37.139,Cat face experiment_fully sample_301-600,2021.1.4,MacIntel,59.99520038
,,,,,,q,5.5615,0,210,210,210,1,210,images/pixabay_cat_001265.jpg,images/pixabay_cat_002300.jpg,Chenxi Liao,1,2021-06-21_15h26.37.139,Cat face experiment_fully sample_301-600,2021.1.4,MacIntel,59.99520038
,,,,,,q,1.8093,0,211,211,211,1,211,images/pixabay_cat_004641.jpg,images/pixabay_cat_004489.jpg,Chenxi Liao,1,2021-06-21_15h26.37.139,Cat face experiment_fully sample_301-600,2021.1.4,MacIntel,59.99520038
,,,,,,q,1.3678,0,212,212,212,1,212,images/pixabay_cat_003228.jpg,images/pixabay_cat_003927.jpg,Chenxi Liao,1,2021-06-21_15h26.37.139,Cat face experiment_fully sample_301-600,2021.1.4,MacIntel,59.99520038
,,,,,,q,1.3209,0,213,213,213,1,213,images/pixabay_cat_001597.jpg,images/pixabay_cat_001284.jpg,Chenxi Liao,1,2021-06-21_15h26.37.139,Cat face experiment_fully sample_301-600,2021.1.4,MacIntel,59.99520038
,,,,,,p,1.1775,0,214,214,214,1,214,images/pixabay_cat_004292.jpg,images/pixabay_cat_001502.jpg,Chenxi Liao,1,2021-06-21_15h26.37.139,Cat face experiment_fully sample_301-600,2021.1.4,MacIntel,59.99520038
,,,,,,p,2.3122,0,215,215,215,1,215,images/pixabay_cat_000043.jpg,images/pixabay_cat_004182.jpg,Chenxi Liao,1,2021-06-21_15h26.37.139,Cat face experiment_fully sample_301-600,2021.1.4,MacIntel,59.99520038
,,,,,,p,1.3446,0,216,216,216,1,216,images/pixabay_cat_003186.jpg,images/pixabay_cat_001304.jpg,Chenxi Liao,1,2021-06-21_15h26.37.139,Cat face experiment_fully sample_301-600,2021.1.4,MacIntel,59.99520038
,,,,,,p,2.026,0,217,217,217,1,217,images/flickr_cat_000285.jpg,images/pixabay_cat_001805.jpg,Chenxi Liao,1,2021-06-21_15h26.37.139,Cat face experiment_fully sample_301-600,2021.1.4,MacIntel,59.99520038
,,,,,,q,1.7093,0,218,218,218,1,218,images/pixabay_cat_002930.jpg,images/pixabay_cat_000883.jpg,Chenxi Liao,1,2021-06-21_15h26.37.139,Cat face experiment_fully sample_301-600,2021.1.4,MacIntel,59.99520038
,,,,,,q,1.0292,0,219,219,219,1,219,images/pixabay_cat_003635.jpg,images/pixabay_cat_000100.jpg,Chenxi Liao,1,2021-06-21_15h26.37.139,Cat face experiment_fully sample_301-600,2021.1.4,MacIntel,59.99520038
,,,,,,p,1.1651,0,220,220,220,1,220,images/pixabay_cat_001160.jpg,images/pixabay_cat_003312.jpg,Chenxi Liao,1,2021-06-21_15h26.37.139,Cat face experiment_fully sample_301-600,2021.1.4,MacIntel,59.99520038
,,,,,,q,1.7929,0,221,221,221,1,221,images/pixabay_cat_003635.jpg,images/pixabay_cat_002690.jpg,Chenxi Liao,1,2021-06-21_15h26.37.139,Cat face experiment_fully sample_301-600,2021.1.4,MacIntel,59.99520038
,,,,,,q,0.6796,0,222,222,222,1,222,images/flickr_cat_000285.jpg,images/pixabay_cat_003638.jpg,Chenxi Liao,1,2021-06-21_15h26.37.139,Cat face experiment_fully sample_301-600,2021.1.4,MacIntel,59.99520038
,,,,,,p,0.9486,0,223,223,223,1,223,images/pixabay_cat_000100.jpg,images/pixabay_cat_000883.jpg,Chenxi Liao,1,2021-06-21_15h26.37.139,Cat face experiment_fully sample_301-600,2021.1.4,MacIntel,59.99520038
,,,,,,q,1.9321,0,224,224,224,1,224,images/pixabay_cat_003228.jpg,images/pixabay_cat_001284.jpg,Chenxi Liao,1,2021-06-21_15h26.37.139,Cat face experiment_fully sample_301-600,2021.1.4,MacIntel,59.99520038
,,,,,,p,0.9707,0,225,225,225,1,225,images/pixabay_cat_003228.jpg,images/pixabay_cat_000043.jpg,Chenxi Liao,1,2021-06-21_15h26.37.139,Cat face experiment_fully sample_301-600,2021.1.4,MacIntel,59.99520038
,,,,,,q,0.7128,0,226,226,226,1,226,images/pixabay_cat_004049.jpg,images/pixabay_cat_002979.jpg,Chenxi Liao,1,2021-06-21_15h26.37.139,Cat face experiment_fully sample_301-600,2021.1.4,MacIntel,59.99520038
,,,,,,p,1.0186,0,227,227,227,1,227,images/pixabay_cat_004292.jpg,images/pixabay_cat_001862.jpg,Chenxi Liao,1,2021-06-21_15h26.37.139,Cat face experiment_fully sample_301-600,2021.1.4,MacIntel,59.99520038
,,,,,,p,1.2807,0,228,228,228,1,228,images/pixabay_cat_001805.jpg,images/pixabay_cat_002930.jpg,Chenxi Liao,1,2021-06-21_15h26.37.139,Cat face experiment_fully sample_301-600,2021.1.4,MacIntel,59.99520038
,,,,,,q,3.1953,0,229,229,229,1,229,images/pixabay_cat_001304.jpg,images/pixabay_cat_001805.jpg,Chenxi Liao,1,2021-06-21_15h26.37.139,Cat face experiment_fully sample_301-600,2021.1.4,MacIntel,59.99520038
,,,,,,p,1.1607,0,230,230,230,1,230,images/pixabay_cat_002979.jpg,images/pixabay_cat_002930.jpg,Chenxi Liao,1,2021-06-21_15h26.37.139,Cat face experiment_fully sample_301-600,2021.1.4,MacIntel,59.99520038
,,,,,,q,1.5764,0,231,231,231,1,231,images/flickr_cat_000083.jpg,images/pixabay_cat_000883.jpg,Chenxi Liao,1,2021-06-21_15h26.37.139,Cat face experiment_fully sample_301-600,2021.1.4,MacIntel,59.99520038
,,,,,,q,0.9276,0,232,232,232,1,232,images/pixabay_cat_000043.jpg,images/pixabay_cat_001265.jpg,Chenxi Liao,1,2021-06-21_15h26.37.139,Cat face experiment_fully sample_301-600,2021.1.4,MacIntel,59.99520038
,,,,,,p,0.8275,0,233,233,233,1,233,images/pixabay_cat_004292.jpg,images/pixabay_cat_000120.jpg,Chenxi Liao,1,2021-06-21_15h26.37.139,Cat face experiment_fully sample_301-600,2021.1.4,MacIntel,59.99520038
,,,,,,q,0.6817,0,234,234,234,1,234,images/flickr_cat_000240.jpg,images/pixabay_cat_001304.jpg,Chenxi Liao,1,2021-06-21_15h26.37.139,Cat face experiment_fully sample_301-600,2021.1.4,MacIntel,59.99520038
,,,,,,q,0.9765,0,235,235,235,1,235,images/pixabay_cat_004292.jpg,images/flickr_cat_000206.jpg,Chenxi Liao,1,2021-06-21_15h26.37.139,Cat face experiment_fully sample_301-600,2021.1.4,MacIntel,59.99520038
,,,,,,p,1.1176,0,236,236,236,1,236,images/pixabay_cat_001102.jpg,images/pixabay_cat_001304.jpg,Chenxi Liao,1,2021-06-21_15h26.37.139,Cat face experiment_fully sample_301-600,2021.1.4,MacIntel,59.99520038
,,,,,,q,0.9992,0,237,237,237,1,237,images/flickr_cat_000581.jpg,images/pixabay_cat_003228.jpg,Chenxi Liao,1,2021-06-21_15h26.37.139,Cat face experiment_fully sample_301-600,2021.1.4,MacIntel,59.99520038
,,,,,,q,1.4435,0,238,238,238,1,238,images/flickr_cat_000240.jpg,images/pixabay_cat_000100.jpg,Chenxi Liao,1,2021-06-21_15h26.37.139,Cat face experiment_fully sample_301-600,2021.1.4,MacIntel,59.99520038
,,,,,,p,0.8441,0,239,239,239,1,239,images/pixabay_cat_003635.jpg,images/pixabay_cat_001862.jpg,Chenxi Liao,1,2021-06-21_15h26.37.139,Cat face experiment_fully sample_301-600,2021.1.4,MacIntel,59.99520038
,,,,,,q,0.8647,0,240,240,240,1,240,images/pixabay_cat_004049.jpg,images/pixabay_cat_001178.jpg,Chenxi Liao,1,2021-06-21_15h26.37.139,Cat face experiment_fully sample_301-600,2021.1.4,MacIntel,59.99520038
,,,,,,q,1.1134,0,241,241,241,1,241,images/pixabay_cat_003638.jpg,images/pixabay_cat_001178.jpg,Chenxi Liao,1,2021-06-21_15h26.37.139,Cat face experiment_fully sample_301-600,2021.1.4,MacIntel,59.99520038
,,,,,,q,1.3674,0,242,242,242,1,242,images/pixabay_cat_000043.jpg,images/pixabay_cat_002930.jpg,Chenxi Liao,1,2021-06-21_15h26.37.139,Cat face experiment_fully sample_301-600,2021.1.4,MacIntel,59.99520038
,,,,,,p,1.0012,0,243,243,243,1,243,images/pixabay_cat_001160.jpg,images/pixabay_cat_002930.jpg,Chenxi Liao,1,2021-06-21_15h26.37.139,Cat face experiment_fully sample_301-600,2021.1.4,MacIntel,59.99520038
,,,,,,q,0.8269,0,244,244,244,1,244,images/pixabay_cat_003566.jpg,images/flickr_cat_000206.jpg,Chenxi Liao,1,2021-06-21_15h26.37.139,Cat face experiment_fully sample_301-600,2021.1.4,MacIntel,59.99520038
,,,,,,q,0.9007,0,245,245,245,1,245,images/pixabay_cat_001597.jpg,images/pixabay_cat_004182.jpg,Chenxi Liao,1,2021-06-21_15h26.37.139,Cat face experiment_fully sample_301-600,2021.1.4,MacIntel,59.99520038
,,,,,,q,1.1088,0,246,246,246,1,246,images/pixabay_cat_000043.jpg,images/pixabay_cat_001284.jpg,Chenxi Liao,1,2021-06-21_15h26.37.139,Cat face experiment_fully sample_301-600,2021.1.4,MacIntel,59.99520038
,,,,,,q,1.2948,0,247,247,247,1,247,images/pixabay_cat_001502.jpg,images/pixabay_cat_004641.jpg,Chenxi Liao,1,2021-06-21_15h26.37.139,Cat face experiment_fully sample_301-600,2021.1.4,MacIntel,59.99520038
,,,,,,q,0.9608,0,248,248,248,1,248,images/pixabay_cat_002045.jpg,images/pixabay_cat_004148.jpg,Chenxi Liao,1,2021-06-21_15h26.37.139,Cat face experiment_fully sample_301-600,2021.1.4,MacIntel,59.99520038
,,,,,,q,0.7988,0,249,249,249,1,249,images/flickr_cat_000271.jpg,images/pixabay_cat_004148.jpg,Chenxi Liao,1,2021-06-21_15h26.37.139,Cat face experiment_fully sample_301-600,2021.1.4,MacIntel,59.99520038
,,,,,,p,1.6429,0,250,250,250,1,250,images/pixabay_cat_003635.jpg,images/pixabay_cat_003312.jpg,Chenxi Liao,1,2021-06-21_15h26.37.139,Cat face experiment_fully sample_301-600,2021.1.4,MacIntel,59.99520038
,,,,,,p,1.5086,0,251,251,251,1,251,images/pixabay_cat_003425.jpg,images/flickr_cat_000200.jpg,Chenxi Liao,1,2021-06-21_15h26.37.139,Cat face experiment_fully sample_301-600,2021.1.4,MacIntel,59.99520038
,,,,,,q,1.0278,0,252,252,252,1,252,images/pixabay_cat_000120.jpg,images/pixabay_cat_001284.jpg,Chenxi Liao,1,2021-06-21_15h26.37.139,Cat face experiment_fully sample_301-600,2021.1.4,MacIntel,59.99520038
,,,,,,q,1.8003,0,253,253,253,1,253,images/pixabay_cat_004292.jpg,images/pixabay_cat_002614.jpg,Chenxi Liao,1,2021-06-21_15h26.37.139,Cat face experiment_fully sample_301-600,2021.1.4,MacIntel,59.99520038
,,,,,,q,0.8785,0,254,254,254,1,254,images/pixabay_cat_004489.jpg,images/pixabay_cat_000286.jpg,Chenxi Liao,1,2021-06-21_15h26.37.139,Cat face experiment_fully sample_301-600,2021.1.4,MacIntel,59.99520038
,,,,,,q,1.7929,0,255,255,255,1,255,images/pixabay_cat_001805.jpg,images/pixabay_cat_000883.jpg,Chenxi Liao,1,2021-06-21_15h26.37.139,Cat face experiment_fully sample_301-600,2021.1.4,MacIntel,59.99520038
,,,,,,p,0.76,0,256,256,256,1,256,images/pixabay_cat_003927.jpg,images/pixabay_cat_004182.jpg,Chenxi Liao,1,2021-06-21_15h26.37.139,Cat face experiment_fully sample_301-600,2021.1.4,MacIntel,59.99520038
,,,,,,q,0.7779,0,257,257,257,1,257,images/flickr_cat_000022.jpg,images/pixabay_cat_000286.jpg,Chenxi Liao,1,2021-06-21_15h26.37.139,Cat face experiment_fully sample_301-600,2021.1.4,MacIntel,59.99520038
,,,,,,p,1.5617,0,258,258,258,1,258,images/pixabay_cat_002614.jpg,images/pixabay_cat_003927.jpg,Chenxi Liao,1,2021-06-21_15h26.37.139,Cat face experiment_fully sample_301-600,2021.1.4,MacIntel,59.99520038
,,,,,,p,2.0433,0,259,259,259,1,259,images/pixabay_cat_001304.jpg,images/pixabay_cat_003312.jpg,Chenxi Liao,1,2021-06-21_15h26.37.139,Cat face experiment_fully sample_301-600,2021.1.4,MacIntel,59.99520038
,,,,,,q,1.1274,0,260,260,260,1,260,images/pixabay_cat_000120.jpg,images/pixabay_cat_002300.jpg,Chenxi Liao,1,2021-06-21_15h26.37.139,Cat face experiment_fully sample_301-600,2021.1.4,MacIntel,59.99520038
,,,,,,q,1.3447,0,261,261,261,1,261,images/pixabay_cat_001265.jpg,images/pixabay_cat_000100.jpg,Chenxi Liao,1,2021-06-21_15h26.37.139,Cat face experiment_fully sample_301-600,2021.1.4,MacIntel,59.99520038
,,,,,,p,1.1093,0,262,262,262,1,262,images/pixabay_cat_002300.jpg,images/pixabay_cat_004182.jpg,Chenxi Liao,1,2021-06-21_15h26.37.139,Cat face experiment_fully sample_301-600,2021.1.4,MacIntel,59.99520038
,,,,,,p,1.8443,0,263,263,263,1,263,images/pixabay_cat_004292.jpg,images/pixabay_cat_002045.jpg,Chenxi Liao,1,2021-06-21_15h26.37.139,Cat face experiment_fully sample_301-600,2021.1.4,MacIntel,59.99520038
,,,,,,p,1.1926,0,264,264,264,1,264,images/pixabay_cat_001284.jpg,images/flickr_cat_000200.jpg,Chenxi Liao,1,2021-06-21_15h26.37.139,Cat face experiment_fully sample_301-600,2021.1.4,MacIntel,59.99520038
,,,,,,q,1.5432,0,265,265,265,1,265,images/pixabay_cat_001102.jpg,images/pixabay_cat_001265.jpg,Chenxi Liao,1,2021-06-21_15h26.37.139,Cat face experiment_fully sample_301-600,2021.1.4,MacIntel,59.99520038
,,,,,,p,1.3284,0,266,266,266,1,266,images/pixabay_cat_002979.jpg,images/pixabay_cat_004148.jpg,Chenxi Liao,1,2021-06-21_15h26.37.139,Cat face experiment_fully sample_301-600,2021.1.4,MacIntel,59.99520038
,,,,,,p,1.0109,0,267,267,267,1,267,images/pixabay_cat_002601.jpg,images/flickr_cat_000200.jpg,Chenxi Liao,1,2021-06-21_15h26.37.139,Cat face experiment_fully sample_301-600,2021.1.4,MacIntel,59.99520038
,,,,,,q,1.4177,0,268,268,268,1,268,images/pixabay_cat_003077.jpg,images/pixabay_cat_001206.jpg,Chenxi Liao,1,2021-06-21_15h26.37.139,Cat face experiment_fully sample_301-600,2021.1.4,MacIntel,59.99520038
,,,,,,q,1.7274,0,269,269,269,1,269,images/flickr_cat_000266.jpg,images/pixabay_cat_001160.jpg,Chenxi Liao,1,2021-06-21_15h26.37.139,Cat face experiment_fully sample_301-600,2021.1.4,MacIntel,59.99520038
,,,,,,p,1.7352,0,270,270,270,1,270,images/pixabay_cat_002601.jpg,images/pixabay_cat_002690.jpg,Chenxi Liao,1,2021-06-21_15h26.37.139,Cat face experiment_fully sample_301-600,2021.1.4,MacIntel,59.99520038
,,,,,,q,1.2643,0,271,271,271,1,271,images/flickr_cat_000271.jpg,images/pixabay_cat_001304.jpg,Chenxi Liao,1,2021-06-21_15h26.37.139,Cat face experiment_fully sample_301-600,2021.1.4,MacIntel,59.99520038
,,,,,,q,2.7399,0,272,272,272,1,272,images/flickr_cat_000266.jpg,images/pixabay_cat_003121.jpg,Chenxi Liao,1,2021-06-21_15h26.37.139,Cat face experiment_fully sample_301-600,2021.1.4,MacIntel,59.99520038
,,,,,,p,0.8753,0,273,273,273,1,273,images/pixabay_cat_003077.jpg,images/pixabay_cat_004641.jpg,Chenxi Liao,1,2021-06-21_15h26.37.139,Cat face experiment_fully sample_301-600,2021.1.4,MacIntel,59.99520038
,,,,,,q,1.5322,0,274,274,274,1,274,images/pixabay_cat_001502.jpg,images/pixabay_cat_003121.jpg,Chenxi Liao,1,2021-06-21_15h26.37.139,Cat face experiment_fully sample_301-600,2021.1.4,MacIntel,59.99520038
,,,,,,p,1.4924,0,275,275,275,1,275,images/pixabay_cat_001265.jpg,images/pixabay_cat_004489.jpg,Chenxi Liao,1,2021-06-21_15h26.37.139,Cat face experiment_fully sample_301-600,2021.1.4,MacIntel,59.99520038
,,,,,,q,1.0453,0,276,276,276,1,276,images/pixabay_cat_004641.jpg,images/pixabay_cat_003312.jpg,Chenxi Liao,1,2021-06-21_15h26.37.139,Cat face experiment_fully sample_301-600,2021.1.4,MacIntel,59.99520038
,,,,,,q,1.9316,0,277,277,277,1,277,images/pixabay_cat_003121.jpg,images/pixabay_cat_002300.jpg,Chenxi Liao,1,2021-06-21_15h26.37.139,Cat face experiment_fully sample_301-600,2021.1.4,MacIntel,59.99520038
,,,,,,q,1.1187,0,278,278,278,1,278,images/pixabay_cat_000043.jpg,images/pixabay_cat_002300.jpg,Chenxi Liao,1,2021-06-21_15h26.37.139,Cat face experiment_fully sample_301-600,2021.1.4,MacIntel,59.99520038
,,,,,,q,1.4306,0,279,279,279,1,279,images/flickr_cat_000285.jpg,images/pixabay_cat_001206.jpg,Chenxi Liao,1,2021-06-21_15h26.37.139,Cat face experiment_fully sample_301-600,2021.1.4,MacIntel,59.99520038
,,,,,,q,1.759,0,280,280,280,1,280,images/pixabay_cat_003186.jpg,images/pixabay_cat_003638.jpg,Chenxi Liao,1,2021-06-21_15h26.37.139,Cat face experiment_fully sample_301-600,2021.1.4,MacIntel,59.99520038
,,,,,,q,1.2789,0,281,281,281,1,281,images/pixabay_cat_004489.jpg,images/pixabay_cat_002979.jpg,Chenxi Liao,1,2021-06-21_15h26.37.139,Cat face experiment_fully sample_301-600,2021.1.4,MacIntel,59.99520038
,,,,,,q,1.3109,0,282,282,282,1,282,images/pixabay_cat_001304.jpg,images/pixabay_cat_002930.jpg,Chenxi Liao,1,2021-06-21_15h26.37.139,Cat face experiment_fully sample_301-600,2021.1.4,MacIntel,59.99520038
,,,,,,q,2.2172,0,283,283,283,1,283,images/pixabay_cat_002690.jpg,images/flickr_cat_000240.jpg,Chenxi Liao,1,2021-06-21_15h26.37.139,Cat face experiment_fully sample_301-600,2021.1.4,MacIntel,59.99520038
,,,,,,p,1.5931,0,284,284,284,1,284,images/pixabay_cat_003186.jpg,images/pixabay_cat_003121.jpg,Chenxi Liao,1,2021-06-21_15h26.37.139,Cat face experiment_fully sample_301-600,2021.1.4,MacIntel,59.99520038
,,,,,,p,1.0008,0,285,285,285,1,285,images/pixabay_cat_003186.jpg,images/pixabay_cat_004182.jpg,Chenxi Liao,1,2021-06-21_15h26.37.139,Cat face experiment_fully sample_301-600,2021.1.4,MacIntel,59.99520038
,,,,,,p,1.3658,0,286,286,286,1,286,images/pixabay_cat_001265.jpg,images/flickr_cat_000200.jpg,Chenxi Liao,1,2021-06-21_15h26.37.139,Cat face experiment_fully sample_301-600,2021.1.4,MacIntel,59.99520038
,,,,,,q,1.7651,0,287,287,287,1,287,images/flickr_cat_000581.jpg,images/pixabay_cat_000120.jpg,Chenxi Liao,1,2021-06-21_15h26.37.139,Cat face experiment_fully sample_301-600,2021.1.4,MacIntel,59.99520038
,,,,,,q,1.4955,0,288,288,288,1,288,images/pixabay_cat_003566.jpg,images/pixabay_cat_003927.jpg,Chenxi Liao,1,2021-06-21_15h26.37.139,Cat face experiment_fully sample_301-600,2021.1.4,MacIntel,59.99520038
,,,,,,q,0.9277,0,289,289,289,1,289,images/pixabay_cat_002690.jpg,images/pixabay_cat_001178.jpg,Chenxi Liao,1,2021-06-21_15h26.37.139,Cat face experiment_fully sample_301-600,2021.1.4,MacIntel,59.99520038
,,,,,,q,0.7466,0,290,290,290,1,290,images/pixabay_cat_002045.jpg,images/pixabay_cat_000100.jpg,Chenxi Liao,1,2021-06-21_15h26.37.139,Cat face experiment_fully sample_301-600,2021.1.4,MacIntel,59.99520038
,,,,,,q,0.9106,0,291,291,291,1,291,images/pixabay_cat_004049.jpg,images/pixabay_cat_001160.jpg,Chenxi Liao,1,2021-06-21_15h26.37.139,Cat face experiment_fully sample_301-600,2021.1.4,MacIntel,59.99520038
,,,,,,p,1.5926,0,292,292,292,1,292,images/flickr_cat_000266.jpg,images/flickr_cat_000200.jpg,Chenxi Liao,1,2021-06-21_15h26.37.139,Cat face experiment_fully sample_301-600,2021.1.4,MacIntel,59.99520038
,,,,,,q,1.9971,0,293,293,293,1,293,images/flickr_cat_000240.jpg,images/flickr_cat_000271.jpg,Chenxi Liao,1,2021-06-21_15h26.37.139,Cat face experiment_fully sample_301-600,2021.1.4,MacIntel,59.99520038
,,,,,,q,2.6649,0,294,294,294,1,294,images/pixabay_cat_003425.jpg,images/pixabay_cat_002930.jpg,Chenxi Liao,1,2021-06-21_15h26.37.139,Cat face experiment_fully sample_301-600,2021.1.4,MacIntel,59.99520038
,,,,,,q,4.0293,0,295,295,295,1,295,images/flickr_cat_000206.jpg,images/pixabay_cat_003121.jpg,Chenxi Liao,1,2021-06-21_15h26.37.139,Cat face experiment_fully sample_301-600,2021.1.4,MacIntel,59.99520038
,,,,,,q,1.1924,0,296,296,296,1,296,images/pixabay_cat_000043.jpg,images/pixabay_cat_001597.jpg,Chenxi Liao,1,2021-06-21_15h26.37.139,Cat face experiment_fully sample_301-600,2021.1.4,MacIntel,59.99520038
,,,,,,q,0.917,0,297,297,297,1,297,images/pixabay_cat_001597.jpg,images/pixabay_cat_002614.jpg,Chenxi Liao,1,2021-06-21_15h26.37.139,Cat face experiment_fully sample_301-600,2021.1.4,MacIntel,59.99520038
,,,,,,q,1.5953,0,298,298,298,1,298,images/pixabay_cat_000411.jpg,images/pixabay_cat_004292.jpg,Chenxi Liao,1,2021-06-21_15h26.37.139,Cat face experiment_fully sample_301-600,2021.1.4,MacIntel,59.99520038
,,,,,,q,0.878,0,299,299,299,1,299,images/pixabay_cat_003425.jpg,images/pixabay_cat_003186.jpg,Chenxi Liao,1,2021-06-21_15h26.37.139,Cat face experiment_fully sample_301-600,2021.1.4,MacIntel,59.99520038
