key_resp.keys,key_resp.rt,key_resp_2.keys,key_resp_2.rt,key_resp_3.keys,key_resp_3.rt,key_resp_4.keys,key_resp_4.rt,trials.thisRepN,trials.thisTrialN,trials.thisN,trials.thisIndex,trials.ran,trail_nums,img1,img2,participant,session,date,expName,psychopyVersion,OS,frameRate
space,3.3468,space,10.5026,space,4.4409,q,2.1542,0,0,0,0,1,0,images/flickr_cat_000581.jpg,images/pixabay_cat_002690.jpg,Jessica U,001,2021-06-21_16h28.37.611,Cat face experiment_fully sample_0-300,2021.1.4,MacIntel,59.94125757
,,,,,,p,1.1392,0,1,1,1,1,1,images/pixabay_cat_003635.jpg,images/pixabay_cat_000286.jpg,Jessica U,001,2021-06-21_16h28.37.611,Cat face experiment_fully sample_0-300,2021.1.4,MacIntel,59.94125757
,,,,,,q,1.7675,0,2,2,2,1,2,images/flickr_cat_000581.jpg,images/pixabay_cat_003312.jpg,Jessica U,001,2021-06-21_16h28.37.611,Cat face experiment_fully sample_0-300,2021.1.4,MacIntel,59.94125757
,,,,,,q,1.5976,0,3,3,3,1,3,images/pixabay_cat_000043.jpg,images/pixabay_cat_000883.jpg,Jessica U,001,2021-06-21_16h28.37.611,Cat face experiment_fully sample_0-300,2021.1.4,MacIntel,59.94125757
,,,,,,p,3.887,0,4,4,4,1,4,images/pixabay_cat_001102.jpg,images/pixabay_cat_000883.jpg,Jessica U,001,2021-06-21_16h28.37.611,Cat face experiment_fully sample_0-300,2021.1.4,MacIntel,59.94125757
,,,,,,q,1.6045,0,5,5,5,1,5,images/pixabay_cat_001284.jpg,images/pixabay_cat_004182.jpg,Jessica U,001,2021-06-21_16h28.37.611,Cat face experiment_fully sample_0-300,2021.1.4,MacIntel,59.94125757
,,,,,,q,2.1868,0,6,6,6,1,6,images/pixabay_cat_002045.jpg,images/pixabay_cat_003121.jpg,Jessica U,001,2021-06-21_16h28.37.611,Cat face experiment_fully sample_0-300,2021.1.4,MacIntel,59.94125757
,,,,,,p,1.7524,0,7,7,7,1,7,images/flickr_cat_000285.jpg,images/flickr_cat_000271.jpg,Jessica U,001,2021-06-21_16h28.37.611,Cat face experiment_fully sample_0-300,2021.1.4,MacIntel,59.94125757
,,,,,,p,1.9018,0,8,8,8,1,8,images/pixabay_cat_001502.jpg,images/pixabay_cat_002300.jpg,Jessica U,001,2021-06-21_16h28.37.611,Cat face experiment_fully sample_0-300,2021.1.4,MacIntel,59.94125757
,,,,,,q,3.6799,0,9,9,9,1,9,images/pixabay_cat_001502.jpg,images/flickr_cat_000083.jpg,Jessica U,001,2021-06-21_16h28.37.611,Cat face experiment_fully sample_0-300,2021.1.4,MacIntel,59.94125757
,,,,,,p,0.9024,0,10,10,10,1,10,images/pixabay_cat_002690.jpg,images/pixabay_cat_001160.jpg,Jessica U,001,2021-06-21_16h28.37.611,Cat face experiment_fully sample_0-300,2021.1.4,MacIntel,59.94125757
,,,,,,q,2.1691,0,11,11,11,1,11,images/flickr_cat_000022.jpg,images/pixabay_cat_002614.jpg,Jessica U,001,2021-06-21_16h28.37.611,Cat face experiment_fully sample_0-300,2021.1.4,MacIntel,59.94125757
,,,,,,p,1.7923,0,12,12,12,1,12,images/pixabay_cat_003566.jpg,images/pixabay_cat_004148.jpg,Jessica U,001,2021-06-21_16h28.37.611,Cat face experiment_fully sample_0-300,2021.1.4,MacIntel,59.94125757
,,,,,,p,2.8588,0,13,13,13,1,13,images/pixabay_cat_002690.jpg,images/flickr_cat_000285.jpg,Jessica U,001,2021-06-21_16h28.37.611,Cat face experiment_fully sample_0-300,2021.1.4,MacIntel,59.94125757
,,,,,,q,3.0245,0,14,14,14,1,14,images/pixabay_cat_004489.jpg,images/pixabay_cat_002614.jpg,Jessica U,001,2021-06-21_16h28.37.611,Cat face experiment_fully sample_0-300,2021.1.4,MacIntel,59.94125757
,,,,,,q,1.7232,0,15,15,15,1,15,images/pixabay_cat_002045.jpg,images/pixabay_cat_002930.jpg,Jessica U,001,2021-06-21_16h28.37.611,Cat face experiment_fully sample_0-300,2021.1.4,MacIntel,59.94125757
,,,,,,p,1.5131,0,16,16,16,1,16,images/pixabay_cat_001265.jpg,images/flickr_cat_000285.jpg,Jessica U,001,2021-06-21_16h28.37.611,Cat face experiment_fully sample_0-300,2021.1.4,MacIntel,59.94125757
,,,,,,p,1.4441,0,17,17,17,1,17,images/pixabay_cat_003077.jpg,images/pixabay_cat_001284.jpg,Jessica U,001,2021-06-21_16h28.37.611,Cat face experiment_fully sample_0-300,2021.1.4,MacIntel,59.94125757
,,,,,,p,1.4354,0,18,18,18,1,18,images/pixabay_cat_001265.jpg,images/pixabay_cat_000883.jpg,Jessica U,001,2021-06-21_16h28.37.611,Cat face experiment_fully sample_0-300,2021.1.4,MacIntel,59.94125757
,,,,,,q,1.643,0,19,19,19,1,19,images/pixabay_cat_001284.jpg,images/pixabay_cat_000100.jpg,Jessica U,001,2021-06-21_16h28.37.611,Cat face experiment_fully sample_0-300,2021.1.4,MacIntel,59.94125757
,,,,,,q,2.1019,0,20,20,20,1,20,images/pixabay_cat_000411.jpg,images/pixabay_cat_003425.jpg,Jessica U,001,2021-06-21_16h28.37.611,Cat face experiment_fully sample_0-300,2021.1.4,MacIntel,59.94125757
,,,,,,p,1.2342,0,21,21,21,1,21,images/pixabay_cat_003566.jpg,images/pixabay_cat_001160.jpg,Jessica U,001,2021-06-21_16h28.37.611,Cat face experiment_fully sample_0-300,2021.1.4,MacIntel,59.94125757
,,,,,,q,2.1503,0,22,22,22,1,22,images/pixabay_cat_004641.jpg,images/pixabay_cat_002979.jpg,Jessica U,001,2021-06-21_16h28.37.611,Cat face experiment_fully sample_0-300,2021.1.4,MacIntel,59.94125757
,,,,,,p,1.0045,0,23,23,23,1,23,images/flickr_cat_000266.jpg,images/flickr_cat_000285.jpg,Jessica U,001,2021-06-21_16h28.37.611,Cat face experiment_fully sample_0-300,2021.1.4,MacIntel,59.94125757
,,,,,,p,3.3924,0,24,24,24,1,24,images/flickr_cat_000022.jpg,images/pixabay_cat_003927.jpg,Jessica U,001,2021-06-21_16h28.37.611,Cat face experiment_fully sample_0-300,2021.1.4,MacIntel,59.94125757
,,,,,,q,1.1741,0,25,25,25,1,25,images/flickr_cat_000022.jpg,images/pixabay_cat_003638.jpg,Jessica U,001,2021-06-21_16h28.37.611,Cat face experiment_fully sample_0-300,2021.1.4,MacIntel,59.94125757
,,,,,,p,2.0942,0,26,26,26,1,26,images/pixabay_cat_003077.jpg,images/pixabay_cat_003927.jpg,Jessica U,001,2021-06-21_16h28.37.611,Cat face experiment_fully sample_0-300,2021.1.4,MacIntel,59.94125757
,,,,,,p,3.1293,0,27,27,27,1,27,images/pixabay_cat_003186.jpg,images/pixabay_cat_002614.jpg,Jessica U,001,2021-06-21_16h28.37.611,Cat face experiment_fully sample_0-300,2021.1.4,MacIntel,59.94125757
,,,,,,q,1.5761,0,28,28,28,1,28,images/pixabay_cat_000120.jpg,images/flickr_cat_000240.jpg,Jessica U,001,2021-06-21_16h28.37.611,Cat face experiment_fully sample_0-300,2021.1.4,MacIntel,59.94125757
,,,,,,p,1.169,0,29,29,29,1,29,images/flickr_cat_000266.jpg,images/pixabay_cat_004641.jpg,Jessica U,001,2021-06-21_16h28.37.611,Cat face experiment_fully sample_0-300,2021.1.4,MacIntel,59.94125757
,,,,,,q,1.9798,0,30,30,30,1,30,images/pixabay_cat_000411.jpg,images/pixabay_cat_003121.jpg,Jessica U,001,2021-06-21_16h28.37.611,Cat face experiment_fully sample_0-300,2021.1.4,MacIntel,59.94125757
,,,,,,p,1.7667,0,31,31,31,1,31,images/pixabay_cat_003566.jpg,images/pixabay_cat_002300.jpg,Jessica U,001,2021-06-21_16h28.37.611,Cat face experiment_fully sample_0-300,2021.1.4,MacIntel,59.94125757
,,,,,,q,2.7439,0,32,32,32,1,32,images/pixabay_cat_004148.jpg,images/pixabay_cat_003312.jpg,Jessica U,001,2021-06-21_16h28.37.611,Cat face experiment_fully sample_0-300,2021.1.4,MacIntel,59.94125757
,,,,,,q,1.8827,0,33,33,33,1,33,images/pixabay_cat_000411.jpg,images/pixabay_cat_001102.jpg,Jessica U,001,2021-06-21_16h28.37.611,Cat face experiment_fully sample_0-300,2021.1.4,MacIntel,59.94125757
,,,,,,p,1.6273,0,34,34,34,1,34,images/pixabay_cat_001265.jpg,images/pixabay_cat_004049.jpg,Jessica U,001,2021-06-21_16h28.37.611,Cat face experiment_fully sample_0-300,2021.1.4,MacIntel,59.94125757
,,,,,,q,1.7975,0,35,35,35,1,35,images/pixabay_cat_001178.jpg,images/flickr_cat_000200.jpg,Jessica U,001,2021-06-21_16h28.37.611,Cat face experiment_fully sample_0-300,2021.1.4,MacIntel,59.94125757
,,,,,,p,1.4002,0,36,36,36,1,36,images/flickr_cat_000206.jpg,images/pixabay_cat_004049.jpg,Jessica U,001,2021-06-21_16h28.37.611,Cat face experiment_fully sample_0-300,2021.1.4,MacIntel,59.94125757
,,,,,,p,1.5599,0,37,37,37,1,37,images/pixabay_cat_001597.jpg,images/pixabay_cat_002300.jpg,Jessica U,001,2021-06-21_16h28.37.611,Cat face experiment_fully sample_0-300,2021.1.4,MacIntel,59.94125757
,,,,,,q,8.9536,0,38,38,38,1,38,images/flickr_cat_000271.jpg,images/pixabay_cat_002300.jpg,Jessica U,001,2021-06-21_16h28.37.611,Cat face experiment_fully sample_0-300,2021.1.4,MacIntel,59.94125757
,,,,,,q,1.2787,0,39,39,39,1,39,images/pixabay_cat_000411.jpg,images/flickr_cat_000083.jpg,Jessica U,001,2021-06-21_16h28.37.611,Cat face experiment_fully sample_0-300,2021.1.4,MacIntel,59.94125757
,,,,,,q,1.9454,0,40,40,40,1,40,images/pixabay_cat_004049.jpg,images/flickr_cat_000271.jpg,Jessica U,001,2021-06-21_16h28.37.611,Cat face experiment_fully sample_0-300,2021.1.4,MacIntel,59.94125757
,,,,,,q,3.2543,0,41,41,41,1,41,images/pixabay_cat_004489.jpg,images/pixabay_cat_000100.jpg,Jessica U,001,2021-06-21_16h28.37.611,Cat face experiment_fully sample_0-300,2021.1.4,MacIntel,59.94125757
,,,,,,q,1.5928,0,42,42,42,1,42,images/flickr_cat_000581.jpg,images/flickr_cat_000083.jpg,Jessica U,001,2021-06-21_16h28.37.611,Cat face experiment_fully sample_0-300,2021.1.4,MacIntel,59.94125757
,,,,,,p,1.8067,0,43,43,43,1,43,images/pixabay_cat_003425.jpg,images/pixabay_cat_002045.jpg,Jessica U,001,2021-06-21_16h28.37.611,Cat face experiment_fully sample_0-300,2021.1.4,MacIntel,59.94125757
,,,,,,q,1.6009,0,44,44,44,1,44,images/pixabay_cat_001805.jpg,images/pixabay_cat_001862.jpg,Jessica U,001,2021-06-21_16h28.37.611,Cat face experiment_fully sample_0-300,2021.1.4,MacIntel,59.94125757
,,,,,,p,1.3145,0,45,45,45,1,45,images/pixabay_cat_000043.jpg,images/pixabay_cat_001160.jpg,Jessica U,001,2021-06-21_16h28.37.611,Cat face experiment_fully sample_0-300,2021.1.4,MacIntel,59.94125757
,,,,,,p,2.6144,0,46,46,46,1,46,images/pixabay_cat_003425.jpg,images/pixabay_cat_004148.jpg,Jessica U,001,2021-06-21_16h28.37.611,Cat face experiment_fully sample_0-300,2021.1.4,MacIntel,59.94125757
,,,,,,p,1.4284,0,47,47,47,1,47,images/pixabay_cat_003312.jpg,images/pixabay_cat_000286.jpg,Jessica U,001,2021-06-21_16h28.37.611,Cat face experiment_fully sample_0-300,2021.1.4,MacIntel,59.94125757
,,,,,,p,2.6066,0,48,48,48,1,48,images/flickr_cat_000206.jpg,images/flickr_cat_000240.jpg,Jessica U,001,2021-06-21_16h28.37.611,Cat face experiment_fully sample_0-300,2021.1.4,MacIntel,59.94125757
,,,,,,q,1.3443,0,49,49,49,1,49,images/pixabay_cat_001597.jpg,images/pixabay_cat_000100.jpg,Jessica U,001,2021-06-21_16h28.37.611,Cat face experiment_fully sample_0-300,2021.1.4,MacIntel,59.94125757
,,,,,,q,2.8722,0,50,50,50,1,50,images/flickr_cat_000022.jpg,images/pixabay_cat_001805.jpg,Jessica U,001,2021-06-21_16h28.37.611,Cat face experiment_fully sample_0-300,2021.1.4,MacIntel,59.94125757
,,,,,,q,1.7975,0,51,51,51,1,51,images/pixabay_cat_000043.jpg,images/pixabay_cat_003638.jpg,Jessica U,001,2021-06-21_16h28.37.611,Cat face experiment_fully sample_0-300,2021.1.4,MacIntel,59.94125757
,,,,,,p,3.2641,0,52,52,52,1,52,images/pixabay_cat_003228.jpg,images/pixabay_cat_002045.jpg,Jessica U,001,2021-06-21_16h28.37.611,Cat face experiment_fully sample_0-300,2021.1.4,MacIntel,59.94125757
,,,,,,p,5.6441,0,53,53,53,1,53,images/pixabay_cat_002300.jpg,images/pixabay_cat_001284.jpg,Jessica U,001,2021-06-21_16h28.37.611,Cat face experiment_fully sample_0-300,2021.1.4,MacIntel,59.94125757
,,,,,,q,1.1296,0,54,54,54,1,54,images/pixabay_cat_001102.jpg,images/pixabay_cat_001597.jpg,Jessica U,001,2021-06-21_16h28.37.611,Cat face experiment_fully sample_0-300,2021.1.4,MacIntel,59.94125757
,,,,,,q,1.6105,0,55,55,55,1,55,images/pixabay_cat_000043.jpg,images/pixabay_cat_001862.jpg,Jessica U,001,2021-06-21_16h28.37.611,Cat face experiment_fully sample_0-300,2021.1.4,MacIntel,59.94125757
,,,,,,q,1.7312,0,56,56,56,1,56,images/pixabay_cat_000043.jpg,images/pixabay_cat_001805.jpg,Jessica U,001,2021-06-21_16h28.37.611,Cat face experiment_fully sample_0-300,2021.1.4,MacIntel,59.94125757
,,,,,,p,2.1276,0,57,57,57,1,57,images/pixabay_cat_003425.jpg,images/pixabay_cat_004182.jpg,Jessica U,001,2021-06-21_16h28.37.611,Cat face experiment_fully sample_0-300,2021.1.4,MacIntel,59.94125757
,,,,,,q,1.7749,0,58,58,58,1,58,images/pixabay_cat_000043.jpg,images/pixabay_cat_000286.jpg,Jessica U,001,2021-06-21_16h28.37.611,Cat face experiment_fully sample_0-300,2021.1.4,MacIntel,59.94125757
,,,,,,q,1.6127,0,59,59,59,1,59,images/pixabay_cat_004292.jpg,images/pixabay_cat_003077.jpg,Jessica U,001,2021-06-21_16h28.37.611,Cat face experiment_fully sample_0-300,2021.1.4,MacIntel,59.94125757
,,,,,,p,2.1306,0,60,60,60,1,60,images/pixabay_cat_001597.jpg,images/pixabay_cat_002930.jpg,Jessica U,001,2021-06-21_16h28.37.611,Cat face experiment_fully sample_0-300,2021.1.4,MacIntel,59.94125757
,,,,,,q,1.6566,0,61,61,61,1,61,images/pixabay_cat_001502.jpg,images/pixabay_cat_001102.jpg,Jessica U,001,2021-06-21_16h28.37.611,Cat face experiment_fully sample_0-300,2021.1.4,MacIntel,59.94125757
,,,,,,p,2.0093,0,62,62,62,1,62,images/pixabay_cat_004292.jpg,images/pixabay_cat_003927.jpg,Jessica U,001,2021-06-21_16h28.37.611,Cat face experiment_fully sample_0-300,2021.1.4,MacIntel,59.94125757
,,,,,,p,2.3914,0,63,63,63,1,63,images/pixabay_cat_004489.jpg,images/pixabay_cat_004049.jpg,Jessica U,001,2021-06-21_16h28.37.611,Cat face experiment_fully sample_0-300,2021.1.4,MacIntel,59.94125757
,,,,,,p,3.4223,0,64,64,64,1,64,images/pixabay_cat_002045.jpg,images/flickr_cat_000200.jpg,Jessica U,001,2021-06-21_16h28.37.611,Cat face experiment_fully sample_0-300,2021.1.4,MacIntel,59.94125757
,,,,,,q,2.435,0,65,65,65,1,65,images/pixabay_cat_003228.jpg,images/flickr_cat_000200.jpg,Jessica U,001,2021-06-21_16h28.37.611,Cat face experiment_fully sample_0-300,2021.1.4,MacIntel,59.94125757
,,,,,,p,1.8956,0,66,66,66,1,66,images/pixabay_cat_003635.jpg,images/pixabay_cat_003121.jpg,Jessica U,001,2021-06-21_16h28.37.611,Cat face experiment_fully sample_0-300,2021.1.4,MacIntel,59.94125757
,,,,,,p,0.9884,0,67,67,67,1,67,images/pixabay_cat_004489.jpg,images/pixabay_cat_000120.jpg,Jessica U,001,2021-06-21_16h28.37.611,Cat face experiment_fully sample_0-300,2021.1.4,MacIntel,59.94125757
,,,,,,q,2.8463,0,68,68,68,1,68,images/pixabay_cat_004641.jpg,images/pixabay_cat_003121.jpg,Jessica U,001,2021-06-21_16h28.37.611,Cat face experiment_fully sample_0-300,2021.1.4,MacIntel,59.94125757
,,,,,,p,1.2492,0,69,69,69,1,69,images/pixabay_cat_003077.jpg,images/flickr_cat_000240.jpg,Jessica U,001,2021-06-21_16h28.37.611,Cat face experiment_fully sample_0-300,2021.1.4,MacIntel,59.94125757
,,,,,,q,1.8649,0,70,70,70,1,70,images/pixabay_cat_004641.jpg,images/flickr_cat_000271.jpg,Jessica U,001,2021-06-21_16h28.37.611,Cat face experiment_fully sample_0-300,2021.1.4,MacIntel,59.94125757
,,,,,,q,5.3991,0,71,71,71,1,71,images/pixabay_cat_001265.jpg,images/pixabay_cat_001206.jpg,Jessica U,001,2021-06-21_16h28.37.611,Cat face experiment_fully sample_0-300,2021.1.4,MacIntel,59.94125757
,,,,,,p,1.4247,0,72,72,72,1,72,images/pixabay_cat_001304.jpg,images/pixabay_cat_000286.jpg,Jessica U,001,2021-06-21_16h28.37.611,Cat face experiment_fully sample_0-300,2021.1.4,MacIntel,59.94125757
,,,,,,q,2.4515,0,73,73,73,1,73,images/pixabay_cat_002979.jpg,images/pixabay_cat_001206.jpg,Jessica U,001,2021-06-21_16h28.37.611,Cat face experiment_fully sample_0-300,2021.1.4,MacIntel,59.94125757
,,,,,,p,1.4402,0,74,74,74,1,74,images/pixabay_cat_003927.jpg,images/pixabay_cat_004148.jpg,Jessica U,001,2021-06-21_16h28.37.611,Cat face experiment_fully sample_0-300,2021.1.4,MacIntel,59.94125757
,,,,,,p,1.7935,0,75,75,75,1,75,images/flickr_cat_000266.jpg,images/flickr_cat_000022.jpg,Jessica U,001,2021-06-21_16h28.37.611,Cat face experiment_fully sample_0-300,2021.1.4,MacIntel,59.94125757
,,,,,,p,2.4995,0,76,76,76,1,76,images/pixabay_cat_000260.jpg,images/pixabay_cat_002300.jpg,Jessica U,001,2021-06-21_16h28.37.611,Cat face experiment_fully sample_0-300,2021.1.4,MacIntel,59.94125757
,,,,,,p,2.1288,0,77,77,77,1,77,images/pixabay_cat_003228.jpg,images/pixabay_cat_002690.jpg,Jessica U,001,2021-06-21_16h28.37.611,Cat face experiment_fully sample_0-300,2021.1.4,MacIntel,59.94125757
,,,,,,p,1.5341,0,78,78,78,1,78,images/pixabay_cat_004292.jpg,images/pixabay_cat_000286.jpg,Jessica U,001,2021-06-21_16h28.37.611,Cat face experiment_fully sample_0-300,2021.1.4,MacIntel,59.94125757
,,,,,,p,1.6468,0,79,79,79,1,79,images/pixabay_cat_001304.jpg,images/pixabay_cat_001284.jpg,Jessica U,001,2021-06-21_16h28.37.611,Cat face experiment_fully sample_0-300,2021.1.4,MacIntel,59.94125757
,,,,,,q,2.1419,0,80,80,80,1,80,images/pixabay_cat_000411.jpg,images/pixabay_cat_001178.jpg,Jessica U,001,2021-06-21_16h28.37.611,Cat face experiment_fully sample_0-300,2021.1.4,MacIntel,59.94125757
,,,,,,p,1.3536,0,81,81,81,1,81,images/flickr_cat_000266.jpg,images/pixabay_cat_000883.jpg,Jessica U,001,2021-06-21_16h28.37.611,Cat face experiment_fully sample_0-300,2021.1.4,MacIntel,59.94125757
,,,,,,p,1.198,0,82,82,82,1,82,images/pixabay_cat_002690.jpg,images/pixabay_cat_004182.jpg,Jessica U,001,2021-06-21_16h28.37.611,Cat face experiment_fully sample_0-300,2021.1.4,MacIntel,59.94125757
,,,,,,p,1.5146,0,83,83,83,1,83,images/pixabay_cat_003077.jpg,images/flickr_cat_000200.jpg,Jessica U,001,2021-06-21_16h28.37.611,Cat face experiment_fully sample_0-300,2021.1.4,MacIntel,59.94125757
,,,,,,p,3.2651,0,84,84,84,1,84,images/pixabay_cat_003312.jpg,images/pixabay_cat_000100.jpg,Jessica U,001,2021-06-21_16h28.37.611,Cat face experiment_fully sample_0-300,2021.1.4,MacIntel,59.94125757
,,,,,,q,10.7825,0,85,85,85,1,85,images/pixabay_cat_001502.jpg,images/flickr_cat_000266.jpg,Jessica U,001,2021-06-21_16h28.37.611,Cat face experiment_fully sample_0-300,2021.1.4,MacIntel,59.94125757
,,,,,,p,2.0551,0,86,86,86,1,86,images/pixabay_cat_002690.jpg,images/pixabay_cat_002930.jpg,Jessica U,001,2021-06-21_16h28.37.611,Cat face experiment_fully sample_0-300,2021.1.4,MacIntel,59.94125757
,,,,,,p,1.278,0,87,87,87,1,87,images/pixabay_cat_003635.jpg,images/flickr_cat_000271.jpg,Jessica U,001,2021-06-21_16h28.37.611,Cat face experiment_fully sample_0-300,2021.1.4,MacIntel,59.94125757
,,,,,,q,2.6188,0,88,88,88,1,88,images/pixabay_cat_004292.jpg,images/pixabay_cat_004489.jpg,Jessica U,001,2021-06-21_16h28.37.611,Cat face experiment_fully sample_0-300,2021.1.4,MacIntel,59.94125757
,,,,,,p,1.0055,0,89,89,89,1,89,images/pixabay_cat_001206.jpg,images/pixabay_cat_004182.jpg,Jessica U,001,2021-06-21_16h28.37.611,Cat face experiment_fully sample_0-300,2021.1.4,MacIntel,59.94125757
,,,,,,p,1.4817,0,90,90,90,1,90,images/flickr_cat_000271.jpg,images/pixabay_cat_001805.jpg,Jessica U,001,2021-06-21_16h28.37.611,Cat face experiment_fully sample_0-300,2021.1.4,MacIntel,59.94125757
,,,,,,p,1.5366,0,91,91,91,1,91,images/pixabay_cat_003186.jpg,images/pixabay_cat_001178.jpg,Jessica U,001,2021-06-21_16h28.37.611,Cat face experiment_fully sample_0-300,2021.1.4,MacIntel,59.94125757
,,,,,,q,1.1865,0,92,92,92,1,92,images/pixabay_cat_001160.jpg,images/pixabay_cat_001206.jpg,Jessica U,001,2021-06-21_16h28.37.611,Cat face experiment_fully sample_0-300,2021.1.4,MacIntel,59.94125757
,,,,,,p,1.4022,0,93,93,93,1,93,images/pixabay_cat_001206.jpg,images/pixabay_cat_001284.jpg,Jessica U,001,2021-06-21_16h28.37.611,Cat face experiment_fully sample_0-300,2021.1.4,MacIntel,59.94125757
,,,,,,p,1.7159,0,94,94,94,1,94,images/pixabay_cat_001597.jpg,images/pixabay_cat_001304.jpg,Jessica U,001,2021-06-21_16h28.37.611,Cat face experiment_fully sample_0-300,2021.1.4,MacIntel,59.94125757
,,,,,,p,2.0299,0,95,95,95,1,95,images/pixabay_cat_002300.jpg,images/pixabay_cat_001178.jpg,Jessica U,001,2021-06-21_16h28.37.611,Cat face experiment_fully sample_0-300,2021.1.4,MacIntel,59.94125757
,,,,,,p,1.8591,0,96,96,96,1,96,images/pixabay_cat_001597.jpg,images/pixabay_cat_001178.jpg,Jessica U,001,2021-06-21_16h28.37.611,Cat face experiment_fully sample_0-300,2021.1.4,MacIntel,59.94125757
,,,,,,p,2.0113,0,97,97,97,1,97,images/pixabay_cat_002601.jpg,images/flickr_cat_000022.jpg,Jessica U,001,2021-06-21_16h28.37.611,Cat face experiment_fully sample_0-300,2021.1.4,MacIntel,59.94125757
,,,,,,p,1.8991,0,98,98,98,1,98,images/pixabay_cat_002045.jpg,images/pixabay_cat_004049.jpg,Jessica U,001,2021-06-21_16h28.37.611,Cat face experiment_fully sample_0-300,2021.1.4,MacIntel,59.94125757
,,,,,,p,2.1874,0,99,99,99,1,99,images/pixabay_cat_003077.jpg,images/pixabay_cat_001304.jpg,Jessica U,001,2021-06-21_16h28.37.611,Cat face experiment_fully sample_0-300,2021.1.4,MacIntel,59.94125757
,,,,,,q,1.2737,0,100,100,100,1,100,images/pixabay_cat_001160.jpg,images/pixabay_cat_004182.jpg,Jessica U,001,2021-06-21_16h28.37.611,Cat face experiment_fully sample_0-300,2021.1.4,MacIntel,59.94125757
,,,,,,q,6.2195,0,101,101,101,1,101,images/pixabay_cat_004049.jpg,images/pixabay_cat_003638.jpg,Jessica U,001,2021-06-21_16h28.37.611,Cat face experiment_fully sample_0-300,2021.1.4,MacIntel,59.94125757
,,,,,,p,2.8444,0,102,102,102,1,102,images/pixabay_cat_004641.jpg,images/flickr_cat_000022.jpg,Jessica U,001,2021-06-21_16h28.37.611,Cat face experiment_fully sample_0-300,2021.1.4,MacIntel,59.94125757
,,,,,,p,1.7399,0,103,103,103,1,103,images/pixabay_cat_000260.jpg,images/pixabay_cat_002045.jpg,Jessica U,001,2021-06-21_16h28.37.611,Cat face experiment_fully sample_0-300,2021.1.4,MacIntel,59.94125757
,,,,,,p,1.6856,0,104,104,104,1,104,images/pixabay_cat_003121.jpg,images/pixabay_cat_004182.jpg,Jessica U,001,2021-06-21_16h28.37.611,Cat face experiment_fully sample_0-300,2021.1.4,MacIntel,59.94125757
,,,,,,p,2.1465,0,105,105,105,1,105,images/pixabay_cat_003077.jpg,images/pixabay_cat_001597.jpg,Jessica U,001,2021-06-21_16h28.37.611,Cat face experiment_fully sample_0-300,2021.1.4,MacIntel,59.94125757
,,,,,,p,1.7763,0,106,106,106,1,106,images/pixabay_cat_004292.jpg,images/pixabay_cat_003566.jpg,Jessica U,001,2021-06-21_16h28.37.611,Cat face experiment_fully sample_0-300,2021.1.4,MacIntel,59.94125757
,,,,,,q,1.5217,0,107,107,107,1,107,images/pixabay_cat_000411.jpg,images/pixabay_cat_000100.jpg,Jessica U,001,2021-06-21_16h28.37.611,Cat face experiment_fully sample_0-300,2021.1.4,MacIntel,59.94125757
,,,,,,p,1.9732,0,108,108,108,1,108,images/pixabay_cat_003566.jpg,images/flickr_cat_000266.jpg,Jessica U,001,2021-06-21_16h28.37.611,Cat face experiment_fully sample_0-300,2021.1.4,MacIntel,59.94125757
,,,,,,p,1.356,0,109,109,109,1,109,images/pixabay_cat_001265.jpg,images/pixabay_cat_003312.jpg,Jessica U,001,2021-06-21_16h28.37.611,Cat face experiment_fully sample_0-300,2021.1.4,MacIntel,59.94125757
,,,,,,q,2.3695,0,110,110,110,1,110,images/flickr_cat_000581.jpg,images/pixabay_cat_003186.jpg,Jessica U,001,2021-06-21_16h28.37.611,Cat face experiment_fully sample_0-300,2021.1.4,MacIntel,59.94125757
,,,,,,p,1.2973,0,111,111,111,1,111,images/pixabay_cat_003635.jpg,images/flickr_cat_000266.jpg,Jessica U,001,2021-06-21_16h28.37.611,Cat face experiment_fully sample_0-300,2021.1.4,MacIntel,59.94125757
,,,,,,q,1.6731,0,112,112,112,1,112,images/flickr_cat_000581.jpg,images/pixabay_cat_003425.jpg,Jessica U,001,2021-06-21_16h28.37.611,Cat face experiment_fully sample_0-300,2021.1.4,MacIntel,59.94125757
,,,,,,p,2.6737,0,113,113,113,1,113,images/pixabay_cat_002614.jpg,images/pixabay_cat_003312.jpg,Jessica U,001,2021-06-21_16h28.37.611,Cat face experiment_fully sample_0-300,2021.1.4,MacIntel,59.94125757
,,,,,,p,1.1605,0,114,114,114,1,114,images/pixabay_cat_001597.jpg,images/flickr_cat_000200.jpg,Jessica U,001,2021-06-21_16h28.37.611,Cat face experiment_fully sample_0-300,2021.1.4,MacIntel,59.94125757
,,,,,,p,1.6126,0,115,115,115,1,115,images/flickr_cat_000266.jpg,images/pixabay_cat_001178.jpg,Jessica U,001,2021-06-21_16h28.37.611,Cat face experiment_fully sample_0-300,2021.1.4,MacIntel,59.94125757
,,,,,,p,1.6399,0,116,116,116,1,116,images/pixabay_cat_002601.jpg,images/pixabay_cat_004049.jpg,Jessica U,001,2021-06-21_16h28.37.611,Cat face experiment_fully sample_0-300,2021.1.4,MacIntel,59.94125757
,,,,,,p,1.231,0,117,117,117,1,117,images/pixabay_cat_000411.jpg,images/pixabay_cat_000043.jpg,Jessica U,001,2021-06-21_16h28.37.611,Cat face experiment_fully sample_0-300,2021.1.4,MacIntel,59.94125757
,,,,,,q,1.8767,0,118,118,118,1,118,images/pixabay_cat_000120.jpg,images/pixabay_cat_002045.jpg,Jessica U,001,2021-06-21_16h28.37.611,Cat face experiment_fully sample_0-300,2021.1.4,MacIntel,59.94125757
,,,,,,q,2.266,0,119,119,119,1,119,images/flickr_cat_000581.jpg,images/pixabay_cat_001597.jpg,Jessica U,001,2021-06-21_16h28.37.611,Cat face experiment_fully sample_0-300,2021.1.4,MacIntel,59.94125757
,,,,,,p,4.0739,0,120,120,120,1,120,images/pixabay_cat_003228.jpg,images/pixabay_cat_002930.jpg,Jessica U,001,2021-06-21_16h28.37.611,Cat face experiment_fully sample_0-300,2021.1.4,MacIntel,59.94125757
,,,,,,q,1.3765,0,121,121,121,1,121,images/flickr_cat_000581.jpg,images/pixabay_cat_001304.jpg,Jessica U,001,2021-06-21_16h28.37.611,Cat face experiment_fully sample_0-300,2021.1.4,MacIntel,59.94125757
,,,,,,q,2.091,0,122,122,122,1,122,images/pixabay_cat_003927.jpg,images/flickr_cat_000200.jpg,Jessica U,001,2021-06-21_16h28.37.611,Cat face experiment_fully sample_0-300,2021.1.4,MacIntel,59.94125757
,,,,,,q,1.448,0,123,123,123,1,123,images/pixabay_cat_000043.jpg,images/pixabay_cat_001304.jpg,Jessica U,001,2021-06-21_16h28.37.611,Cat face experiment_fully sample_0-300,2021.1.4,MacIntel,59.94125757
,,,,,,q,2.0006,0,124,124,124,1,124,images/flickr_cat_000200.jpg,images/pixabay_cat_004182.jpg,Jessica U,001,2021-06-21_16h28.37.611,Cat face experiment_fully sample_0-300,2021.1.4,MacIntel,59.94125757
,,,,,,q,1.6192,0,125,125,125,1,125,images/pixabay_cat_000411.jpg,images/flickr_cat_000581.jpg,Jessica U,001,2021-06-21_16h28.37.611,Cat face experiment_fully sample_0-300,2021.1.4,MacIntel,59.94125757
,,,,,,q,1.3434,0,126,126,126,1,126,images/pixabay_cat_000120.jpg,images/pixabay_cat_003927.jpg,Jessica U,001,2021-06-21_16h28.37.611,Cat face experiment_fully sample_0-300,2021.1.4,MacIntel,59.94125757
,,,,,,p,1.9729,0,127,127,127,1,127,images/pixabay_cat_002045.jpg,images/pixabay_cat_004182.jpg,Jessica U,001,2021-06-21_16h28.37.611,Cat face experiment_fully sample_0-300,2021.1.4,MacIntel,59.94125757
,,,,,,q,1.4411,0,128,128,128,1,128,images/pixabay_cat_000120.jpg,images/pixabay_cat_003121.jpg,Jessica U,001,2021-06-21_16h28.37.611,Cat face experiment_fully sample_0-300,2021.1.4,MacIntel,59.94125757
,,,,,,p,3.8981,0,129,129,129,1,129,images/pixabay_cat_001502.jpg,images/pixabay_cat_004182.jpg,Jessica U,001,2021-06-21_16h28.37.611,Cat face experiment_fully sample_0-300,2021.1.4,MacIntel,59.94125757
,,,,,,p,1.3057,0,130,130,130,1,130,images/pixabay_cat_001597.jpg,images/pixabay_cat_002979.jpg,Jessica U,001,2021-06-21_16h28.37.611,Cat face experiment_fully sample_0-300,2021.1.4,MacIntel,59.94125757
,,,,,,p,2.3256,0,131,131,131,1,131,images/pixabay_cat_004641.jpg,images/flickr_cat_000240.jpg,Jessica U,001,2021-06-21_16h28.37.611,Cat face experiment_fully sample_0-300,2021.1.4,MacIntel,59.94125757
,,,,,,p,1.0095,0,132,132,132,1,132,images/pixabay_cat_000260.jpg,images/pixabay_cat_000043.jpg,Jessica U,001,2021-06-21_16h28.37.611,Cat face experiment_fully sample_0-300,2021.1.4,MacIntel,59.94125757
,,,,,,p,1.4278,0,133,133,133,1,133,images/pixabay_cat_003425.jpg,images/flickr_cat_000285.jpg,Jessica U,001,2021-06-21_16h28.37.611,Cat face experiment_fully sample_0-300,2021.1.4,MacIntel,59.94125757
,,,,,,p,5.5502,0,134,134,134,1,134,images/pixabay_cat_002601.jpg,images/pixabay_cat_001284.jpg,Jessica U,001,2021-06-21_16h28.37.611,Cat face experiment_fully sample_0-300,2021.1.4,MacIntel,59.94125757
,,,,,,p,1.5185,0,135,135,135,1,135,images/pixabay_cat_003186.jpg,images/flickr_cat_000200.jpg,Jessica U,001,2021-06-21_16h28.37.611,Cat face experiment_fully sample_0-300,2021.1.4,MacIntel,59.94125757
,,,,,,p,1.6302,0,136,136,136,1,136,images/pixabay_cat_003077.jpg,images/pixabay_cat_003186.jpg,Jessica U,001,2021-06-21_16h28.37.611,Cat face experiment_fully sample_0-300,2021.1.4,MacIntel,59.94125757
,,,,,,q,5.8547,0,137,137,137,1,137,images/pixabay_cat_003635.jpg,images/pixabay_cat_001102.jpg,Jessica U,001,2021-06-21_16h28.37.611,Cat face experiment_fully sample_0-300,2021.1.4,MacIntel,59.94125757
,,,,,,q,1.0133,0,138,138,138,1,138,images/flickr_cat_000266.jpg,images/pixabay_cat_001265.jpg,Jessica U,001,2021-06-21_16h28.37.611,Cat face experiment_fully sample_0-300,2021.1.4,MacIntel,59.94125757
,,,,,,q,0.8917,0,139,139,139,1,139,images/pixabay_cat_000120.jpg,images/pixabay_cat_002930.jpg,Jessica U,001,2021-06-21_16h28.37.611,Cat face experiment_fully sample_0-300,2021.1.4,MacIntel,59.94125757
,,,,,,p,1.4919,0,140,140,140,1,140,images/flickr_cat_000083.jpg,images/pixabay_cat_002979.jpg,Jessica U,001,2021-06-21_16h28.37.611,Cat face experiment_fully sample_0-300,2021.1.4,MacIntel,59.94125757
,,,,,,p,2.8987,0,141,141,141,1,141,images/pixabay_cat_004641.jpg,images/pixabay_cat_001862.jpg,Jessica U,001,2021-06-21_16h28.37.611,Cat face experiment_fully sample_0-300,2021.1.4,MacIntel,59.94125757
,,,,,,q,1.281,0,142,142,142,1,142,images/pixabay_cat_000411.jpg,images/pixabay_cat_003228.jpg,Jessica U,001,2021-06-21_16h28.37.611,Cat face experiment_fully sample_0-300,2021.1.4,MacIntel,59.94125757
,,,,,,p,1.3978,0,143,143,143,1,143,images/pixabay_cat_001102.jpg,images/pixabay_cat_003927.jpg,Jessica U,001,2021-06-21_16h28.37.611,Cat face experiment_fully sample_0-300,2021.1.4,MacIntel,59.94125757
,,,,,,p,1.3028,0,144,144,144,1,144,images/pixabay_cat_004148.jpg,images/pixabay_cat_000286.jpg,Jessica U,001,2021-06-21_16h28.37.611,Cat face experiment_fully sample_0-300,2021.1.4,MacIntel,59.94125757
,,,,,,q,1.4276,0,145,145,145,1,145,images/pixabay_cat_000411.jpg,images/pixabay_cat_004182.jpg,Jessica U,001,2021-06-21_16h28.37.611,Cat face experiment_fully sample_0-300,2021.1.4,MacIntel,59.94125757
,,,,,,p,1.8575,0,146,146,146,1,146,images/pixabay_cat_004292.jpg,images/pixabay_cat_002601.jpg,Jessica U,001,2021-06-21_16h28.37.611,Cat face experiment_fully sample_0-300,2021.1.4,MacIntel,59.94125757
,,,,,,q,7.316,0,147,147,147,1,147,images/pixabay_cat_003425.jpg,images/pixabay_cat_003312.jpg,Jessica U,001,2021-06-21_16h28.37.611,Cat face experiment_fully sample_0-300,2021.1.4,MacIntel,59.94125757
,,,,,,p,1.1904,0,148,148,148,1,148,images/flickr_cat_000083.jpg,images/pixabay_cat_001178.jpg,Jessica U,001,2021-06-21_16h28.37.611,Cat face experiment_fully sample_0-300,2021.1.4,MacIntel,59.94125757
,,,,,,q,1.3895,0,149,149,149,1,149,images/flickr_cat_000285.jpg,images/pixabay_cat_001304.jpg,Jessica U,001,2021-06-21_16h28.37.611,Cat face experiment_fully sample_0-300,2021.1.4,MacIntel,59.94125757
,,,,,,q,3.261,0,150,150,150,1,150,images/pixabay_cat_001597.jpg,images/pixabay_cat_003121.jpg,Jessica U,001,2021-06-21_16h28.37.611,Cat face experiment_fully sample_0-300,2021.1.4,MacIntel,59.94125757
,,,,,,p,1.2975,0,151,151,151,1,151,images/pixabay_cat_001102.jpg,images/flickr_cat_000200.jpg,Jessica U,001,2021-06-21_16h28.37.611,Cat face experiment_fully sample_0-300,2021.1.4,MacIntel,59.94125757
,,,,,,p,3.1797,0,152,152,152,1,152,images/pixabay_cat_002601.jpg,images/pixabay_cat_003312.jpg,Jessica U,001,2021-06-21_16h28.37.611,Cat face experiment_fully sample_0-300,2021.1.4,MacIntel,59.94125757
,,,,,,q,1.6177,0,153,153,153,1,153,images/pixabay_cat_004292.jpg,images/pixabay_cat_003635.jpg,Jessica U,001,2021-06-21_16h28.37.611,Cat face experiment_fully sample_0-300,2021.1.4,MacIntel,59.94125757
,,,,,,p,1.1295,0,154,154,154,1,154,images/pixabay_cat_004489.jpg,images/pixabay_cat_001178.jpg,Jessica U,001,2021-06-21_16h28.37.611,Cat face experiment_fully sample_0-300,2021.1.4,MacIntel,59.94125757
,,,,,,p,2.0543,0,155,155,155,1,155,images/flickr_cat_000266.jpg,images/flickr_cat_000206.jpg,Jessica U,001,2021-06-21_16h28.37.611,Cat face experiment_fully sample_0-300,2021.1.4,MacIntel,59.94125757
,,,,,,p,1.2767,0,156,156,156,1,156,images/pixabay_cat_003077.jpg,images/pixabay_cat_001160.jpg,Jessica U,001,2021-06-21_16h28.37.611,Cat face experiment_fully sample_0-300,2021.1.4,MacIntel,59.94125757
,,,,,,p,1.6121,0,157,157,157,1,157,images/pixabay_cat_003312.jpg,images/flickr_cat_000200.jpg,Jessica U,001,2021-06-21_16h28.37.611,Cat face experiment_fully sample_0-300,2021.1.4,MacIntel,59.94125757
,,,,,,q,1.856,0,158,158,158,1,158,images/pixabay_cat_001502.jpg,images/pixabay_cat_001862.jpg,Jessica U,001,2021-06-21_16h28.37.611,Cat face experiment_fully sample_0-300,2021.1.4,MacIntel,59.94125757
,,,,,,p,1.2808,0,159,159,159,1,159,images/pixabay_cat_001206.jpg,images/pixabay_cat_001304.jpg,Jessica U,001,2021-06-21_16h28.37.611,Cat face experiment_fully sample_0-300,2021.1.4,MacIntel,59.94125757
,,,,,,p,1.1749,0,160,160,160,1,160,images/pixabay_cat_002614.jpg,images/pixabay_cat_000286.jpg,Jessica U,001,2021-06-21_16h28.37.611,Cat face experiment_fully sample_0-300,2021.1.4,MacIntel,59.94125757
,,,,,,q,5.4462,0,161,161,161,1,161,images/pixabay_cat_000411.jpg,images/pixabay_cat_001862.jpg,Jessica U,001,2021-06-21_16h28.37.611,Cat face experiment_fully sample_0-300,2021.1.4,MacIntel,59.94125757
,,,,,,q,2.779,0,162,162,162,1,162,images/pixabay_cat_003566.jpg,images/pixabay_cat_003186.jpg,Jessica U,001,2021-06-21_16h28.37.611,Cat face experiment_fully sample_0-300,2021.1.4,MacIntel,59.94125757
,,,,,,q,1.3411,0,163,163,163,1,163,images/pixabay_cat_000043.jpg,images/flickr_cat_000240.jpg,Jessica U,001,2021-06-21_16h28.37.611,Cat face experiment_fully sample_0-300,2021.1.4,MacIntel,59.94125757
,,,,,,p,1.3593,0,164,164,164,1,164,images/pixabay_cat_004489.jpg,images/pixabay_cat_000883.jpg,Jessica U,001,2021-06-21_16h28.37.611,Cat face experiment_fully sample_0-300,2021.1.4,MacIntel,59.94125757
,,,,,,p,0.9781,0,165,165,165,1,165,images/flickr_cat_000240.jpg,images/pixabay_cat_001160.jpg,Jessica U,001,2021-06-21_16h28.37.611,Cat face experiment_fully sample_0-300,2021.1.4,MacIntel,59.94125757
,,,,,,q,3.0054,0,166,166,166,1,166,images/pixabay_cat_002045.jpg,images/pixabay_cat_003638.jpg,Jessica U,001,2021-06-21_16h28.37.611,Cat face experiment_fully sample_0-300,2021.1.4,MacIntel,59.94125757
,,,,,,q,2.0999,0,167,167,167,1,167,images/flickr_cat_000206.jpg,images/pixabay_cat_000883.jpg,Jessica U,001,2021-06-21_16h28.37.611,Cat face experiment_fully sample_0-300,2021.1.4,MacIntel,59.94125757
,,,,,,p,3.3938,0,168,168,168,1,168,images/pixabay_cat_001597.jpg,images/flickr_cat_000240.jpg,Jessica U,001,2021-06-21_16h28.37.611,Cat face experiment_fully sample_0-300,2021.1.4,MacIntel,59.94125757
,,,,,,q,2.2413,0,169,169,169,1,169,images/pixabay_cat_002045.jpg,images/pixabay_cat_001805.jpg,Jessica U,001,2021-06-21_16h28.37.611,Cat face experiment_fully sample_0-300,2021.1.4,MacIntel,59.94125757
,,,,,,p,1.3719,0,170,170,170,1,170,images/pixabay_cat_004641.jpg,images/pixabay_cat_000286.jpg,Jessica U,001,2021-06-21_16h28.37.611,Cat face experiment_fully sample_0-300,2021.1.4,MacIntel,59.94125757
,,,,,,q,1.3714,0,171,171,171,1,171,images/flickr_cat_000022.jpg,images/pixabay_cat_000100.jpg,Jessica U,001,2021-06-21_16h28.37.611,Cat face experiment_fully sample_0-300,2021.1.4,MacIntel,59.94125757
,,,,,,p,4.478,0,172,172,172,1,172,images/pixabay_cat_002614.jpg,images/pixabay_cat_001805.jpg,Jessica U,001,2021-06-21_16h28.37.611,Cat face experiment_fully sample_0-300,2021.1.4,MacIntel,59.94125757
,,,,,,p,0.9386,0,173,173,173,1,173,images/pixabay_cat_004489.jpg,images/pixabay_cat_001862.jpg,Jessica U,001,2021-06-21_16h28.37.611,Cat face experiment_fully sample_0-300,2021.1.4,MacIntel,59.94125757
,,,,,,p,2.9486,0,174,174,174,1,174,images/pixabay_cat_002601.jpg,images/pixabay_cat_000100.jpg,Jessica U,001,2021-06-21_16h28.37.611,Cat face experiment_fully sample_0-300,2021.1.4,MacIntel,59.94125757
,,,,,,p,2.7876,0,175,175,175,1,175,images/pixabay_cat_002979.jpg,images/flickr_cat_000200.jpg,Jessica U,001,2021-06-21_16h28.37.611,Cat face experiment_fully sample_0-300,2021.1.4,MacIntel,59.94125757
,,,,,,p,3.594,0,176,176,176,1,176,images/flickr_cat_000285.jpg,images/pixabay_cat_001178.jpg,Jessica U,001,2021-06-21_16h28.37.611,Cat face experiment_fully sample_0-300,2021.1.4,MacIntel,59.94125757
,,,,,,p,1.4108,0,177,177,177,1,177,images/pixabay_cat_003635.jpg,images/pixabay_cat_002601.jpg,Jessica U,001,2021-06-21_16h28.37.611,Cat face experiment_fully sample_0-300,2021.1.4,MacIntel,59.94125757
,,,,,,p,1.6758,0,178,178,178,1,178,images/pixabay_cat_001102.jpg,images/pixabay_cat_001805.jpg,Jessica U,001,2021-06-21_16h28.37.611,Cat face experiment_fully sample_0-300,2021.1.4,MacIntel,59.94125757
,,,,,,q,1.371,0,179,179,179,1,179,images/pixabay_cat_002979.jpg,images/pixabay_cat_000100.jpg,Jessica U,001,2021-06-21_16h28.37.611,Cat face experiment_fully sample_0-300,2021.1.4,MacIntel,59.94125757
,,,,,,q,1.1898,0,180,180,180,1,180,images/pixabay_cat_000120.jpg,images/pixabay_cat_001206.jpg,Jessica U,001,2021-06-21_16h28.37.611,Cat face experiment_fully sample_0-300,2021.1.4,MacIntel,59.94125757
,,,,,,p,1.1542,0,181,181,181,1,181,images/pixabay_cat_000260.jpg,images/flickr_cat_000022.jpg,Jessica U,001,2021-06-21_16h28.37.611,Cat face experiment_fully sample_0-300,2021.1.4,MacIntel,59.94125757
,,,,,,p,2.1413,0,182,182,182,1,182,images/pixabay_cat_003077.jpg,images/pixabay_cat_002930.jpg,Jessica U,001,2021-06-21_16h28.37.611,Cat face experiment_fully sample_0-300,2021.1.4,MacIntel,59.94125757
,,,,,,p,1.5779,0,183,183,183,1,183,images/pixabay_cat_003927.jpg,images/pixabay_cat_001862.jpg,Jessica U,001,2021-06-21_16h28.37.611,Cat face experiment_fully sample_0-300,2021.1.4,MacIntel,59.94125757
,,,,,,q,2.1909,0,184,184,184,1,184,images/pixabay_cat_004641.jpg,images/pixabay_cat_002045.jpg,Jessica U,001,2021-06-21_16h28.37.611,Cat face experiment_fully sample_0-300,2021.1.4,MacIntel,59.94125757
,,,,,,p,3.9012,0,185,185,185,1,185,images/pixabay_cat_003635.jpg,images/pixabay_cat_003077.jpg,Jessica U,001,2021-06-21_16h28.37.611,Cat face experiment_fully sample_0-300,2021.1.4,MacIntel,59.94125757
,,,,,,p,1.2064,0,186,186,186,1,186,images/pixabay_cat_001265.jpg,images/pixabay_cat_002979.jpg,Jessica U,001,2021-06-21_16h28.37.611,Cat face experiment_fully sample_0-300,2021.1.4,MacIntel,59.94125757
,,,,,,p,2.6419,0,187,187,187,1,187,images/pixabay_cat_002614.jpg,images/pixabay_cat_004182.jpg,Jessica U,001,2021-06-21_16h28.37.611,Cat face experiment_fully sample_0-300,2021.1.4,MacIntel,59.94125757
,,,,,,p,0.9524,0,188,188,188,1,188,images/pixabay_cat_004182.jpg,images/pixabay_cat_000286.jpg,Jessica U,001,2021-06-21_16h28.37.611,Cat face experiment_fully sample_0-300,2021.1.4,MacIntel,59.94125757
,,,,,,q,1.3058,0,189,189,189,1,189,images/pixabay_cat_002045.jpg,images/pixabay_cat_000883.jpg,Jessica U,001,2021-06-21_16h28.37.611,Cat face experiment_fully sample_0-300,2021.1.4,MacIntel,59.94125757
,,,,,,q,0.9818,0,190,190,190,1,190,images/pixabay_cat_000120.jpg,images/pixabay_cat_004182.jpg,Jessica U,001,2021-06-21_16h28.37.611,Cat face experiment_fully sample_0-300,2021.1.4,MacIntel,59.94125757
,,,,,,q,2.1196,0,191,191,191,1,191,images/pixabay_cat_004641.jpg,images/pixabay_cat_004049.jpg,Jessica U,001,2021-06-21_16h28.37.611,Cat face experiment_fully sample_0-300,2021.1.4,MacIntel,59.94125757
,,,,,,q,3.3146,0,192,192,192,1,192,images/pixabay_cat_003228.jpg,images/pixabay_cat_004489.jpg,Jessica U,001,2021-06-21_16h28.37.611,Cat face experiment_fully sample_0-300,2021.1.4,MacIntel,59.94125757
,,,,,,p,1.452,0,193,193,193,1,193,images/pixabay_cat_003186.jpg,images/pixabay_cat_001862.jpg,Jessica U,001,2021-06-21_16h28.37.611,Cat face experiment_fully sample_0-300,2021.1.4,MacIntel,59.94125757
,,,,,,p,1.1228,0,194,194,194,1,194,images/pixabay_cat_003228.jpg,images/flickr_cat_000285.jpg,Jessica U,001,2021-06-21_16h28.37.611,Cat face experiment_fully sample_0-300,2021.1.4,MacIntel,59.94125757
,,,,,,q,5.8535,0,195,195,195,1,195,images/pixabay_cat_004049.jpg,images/pixabay_cat_001206.jpg,Jessica U,001,2021-06-21_16h28.37.611,Cat face experiment_fully sample_0-300,2021.1.4,MacIntel,59.94125757
,,,,,,q,1.5885,0,196,196,196,1,196,images/pixabay_cat_001102.jpg,images/pixabay_cat_002930.jpg,Jessica U,001,2021-06-21_16h28.37.611,Cat face experiment_fully sample_0-300,2021.1.4,MacIntel,59.94125757
,,,,,,p,0.9741,0,197,197,197,1,197,images/pixabay_cat_003121.jpg,images/pixabay_cat_001862.jpg,Jessica U,001,2021-06-21_16h28.37.611,Cat face experiment_fully sample_0-300,2021.1.4,MacIntel,59.94125757
,,,,,,p,1.2712,0,198,198,198,1,198,images/flickr_cat_000266.jpg,images/pixabay_cat_004049.jpg,Jessica U,001,2021-06-21_16h28.37.611,Cat face experiment_fully sample_0-300,2021.1.4,MacIntel,59.94125757
,,,,,,q,0.8194,0,199,199,199,1,199,images/pixabay_cat_002690.jpg,images/pixabay_cat_001805.jpg,Jessica U,001,2021-06-21_16h28.37.611,Cat face experiment_fully sample_0-300,2021.1.4,MacIntel,59.94125757
,,,,,,p,0.826,0,200,200,200,1,200,images/pixabay_cat_003638.jpg,images/pixabay_cat_000286.jpg,Jessica U,001,2021-06-21_16h28.37.611,Cat face experiment_fully sample_0-300,2021.1.4,MacIntel,59.94125757
,,,,,,q,1.3739,0,201,201,201,1,201,images/pixabay_cat_001502.jpg,images/pixabay_cat_003228.jpg,Jessica U,001,2021-06-21_16h28.37.611,Cat face experiment_fully sample_0-300,2021.1.4,MacIntel,59.94125757
,,,,,,p,0.9597,0,202,202,202,1,202,images/pixabay_cat_003186.jpg,images/pixabay_cat_001805.jpg,Jessica U,001,2021-06-21_16h28.37.611,Cat face experiment_fully sample_0-300,2021.1.4,MacIntel,59.94125757
,,,,,,p,1.2181,0,203,203,203,1,203,images/flickr_cat_000240.jpg,images/pixabay_cat_004049.jpg,Jessica U,001,2021-06-21_16h28.37.611,Cat face experiment_fully sample_0-300,2021.1.4,MacIntel,59.94125757
,,,,,,p,0.9758,0,204,204,204,1,204,images/pixabay_cat_000260.jpg,images/pixabay_cat_002979.jpg,Jessica U,001,2021-06-21_16h28.37.611,Cat face experiment_fully sample_0-300,2021.1.4,MacIntel,59.94125757
,,,,,,q,1.0415,0,205,205,205,1,205,images/pixabay_cat_001502.jpg,images/pixabay_cat_000100.jpg,Jessica U,001,2021-06-21_16h28.37.611,Cat face experiment_fully sample_0-300,2021.1.4,MacIntel,59.94125757
,,,,,,p,1.7866,0,206,206,206,1,206,images/pixabay_cat_000260.jpg,images/pixabay_cat_001206.jpg,Jessica U,001,2021-06-21_16h28.37.611,Cat face experiment_fully sample_0-300,2021.1.4,MacIntel,59.94125757
,,,,,,q,1.5393,0,207,207,207,1,207,images/pixabay_cat_000411.jpg,images/pixabay_cat_001284.jpg,Jessica U,001,2021-06-21_16h28.37.611,Cat face experiment_fully sample_0-300,2021.1.4,MacIntel,59.94125757
,,,,,,q,1.26,0,208,208,208,1,208,images/pixabay_cat_003186.jpg,images/pixabay_cat_001206.jpg,Jessica U,001,2021-06-21_16h28.37.611,Cat face experiment_fully sample_0-300,2021.1.4,MacIntel,59.94125757
,,,,,,q,3.3378,0,209,209,209,1,209,images/flickr_cat_000266.jpg,images/pixabay_cat_001206.jpg,Jessica U,001,2021-06-21_16h28.37.611,Cat face experiment_fully sample_0-300,2021.1.4,MacIntel,59.94125757
,,,,,,q,2.5623,0,210,210,210,1,210,images/pixabay_cat_001284.jpg,images/pixabay_cat_001862.jpg,Jessica U,001,2021-06-21_16h28.37.611,Cat face experiment_fully sample_0-300,2021.1.4,MacIntel,59.94125757
,,,,,,p,0.909,0,211,211,211,1,211,images/pixabay_cat_003228.jpg,images/pixabay_cat_004182.jpg,Jessica U,001,2021-06-21_16h28.37.611,Cat face experiment_fully sample_0-300,2021.1.4,MacIntel,59.94125757
,,,,,,q,1.4529,0,212,212,212,1,212,images/pixabay_cat_003566.jpg,images/pixabay_cat_002690.jpg,Jessica U,001,2021-06-21_16h28.37.611,Cat face experiment_fully sample_0-300,2021.1.4,MacIntel,59.94125757
,,,,,,p,0.7753,0,213,213,213,1,213,images/pixabay_cat_000260.jpg,images/pixabay_cat_001160.jpg,Jessica U,001,2021-06-21_16h28.37.611,Cat face experiment_fully sample_0-300,2021.1.4,MacIntel,59.94125757
,,,,,,q,1.6041,0,214,214,214,1,214,images/pixabay_cat_000883.jpg,images/pixabay_cat_001862.jpg,Jessica U,001,2021-06-21_16h28.37.611,Cat face experiment_fully sample_0-300,2021.1.4,MacIntel,59.94125757
,,,,,,p,0.8066,0,215,215,215,1,215,images/pixabay_cat_000260.jpg,images/pixabay_cat_000286.jpg,Jessica U,001,2021-06-21_16h28.37.611,Cat face experiment_fully sample_0-300,2021.1.4,MacIntel,59.94125757
,,,,,,q,2.6953,0,216,216,216,1,216,images/flickr_cat_000240.jpg,images/flickr_cat_000083.jpg,Jessica U,001,2021-06-21_16h28.37.611,Cat face experiment_fully sample_0-300,2021.1.4,MacIntel,59.94125757
,,,,,,q,2.7853,0,217,217,217,1,217,images/pixabay_cat_003228.jpg,images/pixabay_cat_003638.jpg,Jessica U,001,2021-06-21_16h28.37.611,Cat face experiment_fully sample_0-300,2021.1.4,MacIntel,59.94125757
,,,,,,p,1.422,0,218,218,218,1,218,images/pixabay_cat_001304.jpg,images/pixabay_cat_002300.jpg,Jessica U,001,2021-06-21_16h28.37.611,Cat face experiment_fully sample_0-300,2021.1.4,MacIntel,59.94125757
,,,,,,p,1.0456,0,219,219,219,1,219,images/pixabay_cat_003228.jpg,images/flickr_cat_000022.jpg,Jessica U,001,2021-06-21_16h28.37.611,Cat face experiment_fully sample_0-300,2021.1.4,MacIntel,59.94125757
,,,,,,q,2.5955,0,220,220,220,1,220,images/pixabay_cat_002614.jpg,images/pixabay_cat_003638.jpg,Jessica U,001,2021-06-21_16h28.37.611,Cat face experiment_fully sample_0-300,2021.1.4,MacIntel,59.94125757
,,,,,,q,1.0914,0,221,221,221,1,221,images/pixabay_cat_004292.jpg,images/pixabay_cat_001206.jpg,Jessica U,001,2021-06-21_16h28.37.611,Cat face experiment_fully sample_0-300,2021.1.4,MacIntel,59.94125757
,,,,,,q,3.4593,0,222,222,222,1,222,images/pixabay_cat_000043.jpg,images/pixabay_cat_002614.jpg,Jessica U,001,2021-06-21_16h28.37.611,Cat face experiment_fully sample_0-300,2021.1.4,MacIntel,59.94125757
,,,,,,q,1.0656,0,223,223,223,1,223,images/flickr_cat_000285.jpg,images/pixabay_cat_000100.jpg,Jessica U,001,2021-06-21_16h28.37.611,Cat face experiment_fully sample_0-300,2021.1.4,MacIntel,59.94125757
,,,,,,q,1.412,0,224,224,224,1,224,images/pixabay_cat_002601.jpg,images/pixabay_cat_004489.jpg,Jessica U,001,2021-06-21_16h28.37.611,Cat face experiment_fully sample_0-300,2021.1.4,MacIntel,59.94125757
,,,,,,q,1.4132,0,225,225,225,1,225,images/pixabay_cat_004641.jpg,images/flickr_cat_000083.jpg,Jessica U,001,2021-06-21_16h28.37.611,Cat face experiment_fully sample_0-300,2021.1.4,MacIntel,59.94125757
,,,,,,q,1.3186,0,226,226,226,1,226,images/pixabay_cat_003566.jpg,images/pixabay_cat_004182.jpg,Jessica U,001,2021-06-21_16h28.37.611,Cat face experiment_fully sample_0-300,2021.1.4,MacIntel,59.94125757
,,,,,,q,1.6442,0,227,227,227,1,227,images/pixabay_cat_001102.jpg,images/pixabay_cat_003121.jpg,Jessica U,001,2021-06-21_16h28.37.611,Cat face experiment_fully sample_0-300,2021.1.4,MacIntel,59.94125757
,,,,,,q,1.6254,0,228,228,228,1,228,images/flickr_cat_000285.jpg,images/pixabay_cat_001284.jpg,Jessica U,001,2021-06-21_16h28.37.611,Cat face experiment_fully sample_0-300,2021.1.4,MacIntel,59.94125757
,,,,,,p,1.5764,0,229,229,229,1,229,images/flickr_cat_000271.jpg,images/pixabay_cat_000286.jpg,Jessica U,001,2021-06-21_16h28.37.611,Cat face experiment_fully sample_0-300,2021.1.4,MacIntel,59.94125757
,,,,,,q,1.4031,0,230,230,230,1,230,images/flickr_cat_000285.jpg,images/pixabay_cat_000883.jpg,Jessica U,001,2021-06-21_16h28.37.611,Cat face experiment_fully sample_0-300,2021.1.4,MacIntel,59.94125757
,,,,,,p,1.2338,0,231,231,231,1,231,images/pixabay_cat_003186.jpg,images/pixabay_cat_000120.jpg,Jessica U,001,2021-06-21_16h28.37.611,Cat face experiment_fully sample_0-300,2021.1.4,MacIntel,59.94125757
,,,,,,p,1.8918,0,232,232,232,1,232,images/pixabay_cat_000100.jpg,images/pixabay_cat_001862.jpg,Jessica U,001,2021-06-21_16h28.37.611,Cat face experiment_fully sample_0-300,2021.1.4,MacIntel,59.94125757
,,,,,,p,1.7853,0,233,233,233,1,233,images/pixabay_cat_003927.jpg,images/pixabay_cat_000100.jpg,Jessica U,001,2021-06-21_16h28.37.611,Cat face experiment_fully sample_0-300,2021.1.4,MacIntel,59.94125757
,,,,,,q,1.2939,0,234,234,234,1,234,images/flickr_cat_000285.jpg,images/flickr_cat_000240.jpg,Jessica U,001,2021-06-21_16h28.37.611,Cat face experiment_fully sample_0-300,2021.1.4,MacIntel,59.94125757
,,,,,,q,1.1752,0,235,235,235,1,235,images/pixabay_cat_001284.jpg,images/pixabay_cat_003312.jpg,Jessica U,001,2021-06-21_16h28.37.611,Cat face experiment_fully sample_0-300,2021.1.4,MacIntel,59.94125757
,,,,,,q,0.9743,0,236,236,236,1,236,images/flickr_cat_000581.jpg,images/pixabay_cat_003635.jpg,Jessica U,001,2021-06-21_16h28.37.611,Cat face experiment_fully sample_0-300,2021.1.4,MacIntel,59.94125757
,,,,,,q,1.8703,0,237,237,237,1,237,images/pixabay_cat_002045.jpg,images/flickr_cat_000083.jpg,Jessica U,001,2021-06-21_16h28.37.611,Cat face experiment_fully sample_0-300,2021.1.4,MacIntel,59.94125757
,,,,,,p,1.2763,0,238,238,238,1,238,images/pixabay_cat_001102.jpg,images/pixabay_cat_001178.jpg,Jessica U,001,2021-06-21_16h28.37.611,Cat face experiment_fully sample_0-300,2021.1.4,MacIntel,59.94125757
,,,,,,q,1.7084,0,239,239,239,1,239,images/pixabay_cat_004049.jpg,images/pixabay_cat_003927.jpg,Jessica U,001,2021-06-21_16h28.37.611,Cat face experiment_fully sample_0-300,2021.1.4,MacIntel,59.94125757
,,,,,,q,1.5655,0,240,240,240,1,240,images/pixabay_cat_000260.jpg,images/pixabay_cat_003635.jpg,Jessica U,001,2021-06-21_16h28.37.611,Cat face experiment_fully sample_0-300,2021.1.4,MacIntel,59.94125757
,,,,,,q,2.511,0,241,241,241,1,241,images/flickr_cat_000022.jpg,images/pixabay_cat_004182.jpg,Jessica U,001,2021-06-21_16h28.37.611,Cat face experiment_fully sample_0-300,2021.1.4,MacIntel,59.94125757
,,,,,,q,2.712,0,242,242,242,1,242,images/pixabay_cat_002690.jpg,images/flickr_cat_000206.jpg,Jessica U,001,2021-06-21_16h28.37.611,Cat face experiment_fully sample_0-300,2021.1.4,MacIntel,59.94125757
,,,,,,p,0.9532,0,243,243,243,1,243,images/pixabay_cat_003425.jpg,images/pixabay_cat_001160.jpg,Jessica U,001,2021-06-21_16h28.37.611,Cat face experiment_fully sample_0-300,2021.1.4,MacIntel,59.94125757
,,,,,,q,2.258,0,244,244,244,1,244,images/flickr_cat_000022.jpg,images/pixabay_cat_001178.jpg,Jessica U,001,2021-06-21_16h28.37.611,Cat face experiment_fully sample_0-300,2021.1.4,MacIntel,59.94125757
,,,,,,p,1.7145,0,245,245,245,1,245,images/pixabay_cat_003425.jpg,images/pixabay_cat_004489.jpg,Jessica U,001,2021-06-21_16h28.37.611,Cat face experiment_fully sample_0-300,2021.1.4,MacIntel,59.94125757
,,,,,,p,2.4396,0,246,246,246,1,246,images/flickr_cat_000206.jpg,images/pixabay_cat_000286.jpg,Jessica U,001,2021-06-21_16h28.37.611,Cat face experiment_fully sample_0-300,2021.1.4,MacIntel,59.94125757
,,,,,,p,1.3314,0,247,247,247,1,247,images/pixabay_cat_001597.jpg,images/pixabay_cat_003927.jpg,Jessica U,001,2021-06-21_16h28.37.611,Cat face experiment_fully sample_0-300,2021.1.4,MacIntel,59.94125757
,,,,,,q,1.0749,0,248,248,248,1,248,images/pixabay_cat_001502.jpg,images/pixabay_cat_002601.jpg,Jessica U,001,2021-06-21_16h28.37.611,Cat face experiment_fully sample_0-300,2021.1.4,MacIntel,59.94125757
,,,,,,q,1.8381,0,249,249,249,1,249,images/pixabay_cat_002690.jpg,images/pixabay_cat_003638.jpg,Jessica U,001,2021-06-21_16h28.37.611,Cat face experiment_fully sample_0-300,2021.1.4,MacIntel,59.94125757
,,,,,,p,2.5337,0,250,250,250,1,250,images/pixabay_cat_000260.jpg,images/flickr_cat_000271.jpg,Jessica U,001,2021-06-21_16h28.37.611,Cat face experiment_fully sample_0-300,2021.1.4,MacIntel,59.94125757
,,,,,,p,1.2056,0,251,251,251,1,251,images/pixabay_cat_003077.jpg,images/flickr_cat_000022.jpg,Jessica U,001,2021-06-21_16h28.37.611,Cat face experiment_fully sample_0-300,2021.1.4,MacIntel,59.94125757
,,,,,,p,1.3999,0,252,252,252,1,252,images/flickr_cat_000581.jpg,images/pixabay_cat_000286.jpg,Jessica U,001,2021-06-21_16h28.37.611,Cat face experiment_fully sample_0-300,2021.1.4,MacIntel,59.94125757
,,,,,,q,1.1179,0,253,253,253,1,253,images/pixabay_cat_003566.jpg,images/pixabay_cat_003077.jpg,Jessica U,001,2021-06-21_16h28.37.611,Cat face experiment_fully sample_0-300,2021.1.4,MacIntel,59.94125757
,,,,,,q,3.7085,0,254,254,254,1,254,images/flickr_cat_000240.jpg,images/pixabay_cat_001805.jpg,Jessica U,001,2021-06-21_16h28.37.611,Cat face experiment_fully sample_0-300,2021.1.4,MacIntel,59.94125757
,,,,,,p,2.0154,0,255,255,255,1,255,images/pixabay_cat_001206.jpg,images/pixabay_cat_003638.jpg,Jessica U,001,2021-06-21_16h28.37.611,Cat face experiment_fully sample_0-300,2021.1.4,MacIntel,59.94125757
,,,,,,p,1.5622,0,256,256,256,1,256,images/pixabay_cat_003635.jpg,images/pixabay_cat_001805.jpg,Jessica U,001,2021-06-21_16h28.37.611,Cat face experiment_fully sample_0-300,2021.1.4,MacIntel,59.94125757
,,,,,,p,2.7579,0,257,257,257,1,257,images/flickr_cat_000022.jpg,images/pixabay_cat_002930.jpg,Jessica U,001,2021-06-21_16h28.37.611,Cat face experiment_fully sample_0-300,2021.1.4,MacIntel,59.94125757
,,,,,,p,0.7089,0,258,258,258,1,258,images/flickr_cat_000022.jpg,images/flickr_cat_000285.jpg,Jessica U,001,2021-06-21_16h28.37.611,Cat face experiment_fully sample_0-300,2021.1.4,MacIntel,59.94125757
,,,,,,q,1.8204,0,259,259,259,1,259,images/flickr_cat_000022.jpg,images/flickr_cat_000200.jpg,Jessica U,001,2021-06-21_16h28.37.611,Cat face experiment_fully sample_0-300,2021.1.4,MacIntel,59.94125757
,,,,,,q,2.5272,0,260,260,260,1,260,images/pixabay_cat_004641.jpg,images/pixabay_cat_003638.jpg,Jessica U,001,2021-06-21_16h28.37.611,Cat face experiment_fully sample_0-300,2021.1.4,MacIntel,59.94125757
,,,,,,q,1.8169,0,261,261,261,1,261,images/pixabay_cat_002601.jpg,images/pixabay_cat_003638.jpg,Jessica U,001,2021-06-21_16h28.37.611,Cat face experiment_fully sample_0-300,2021.1.4,MacIntel,59.94125757
,,,,,,p,1.7169,0,262,262,262,1,262,images/pixabay_cat_004049.jpg,images/pixabay_cat_004182.jpg,Jessica U,001,2021-06-21_16h28.37.611,Cat face experiment_fully sample_0-300,2021.1.4,MacIntel,59.94125757
,,,,,,p,2.0293,0,263,263,263,1,263,images/pixabay_cat_003927.jpg,images/pixabay_cat_001805.jpg,Jessica U,001,2021-06-21_16h28.37.611,Cat face experiment_fully sample_0-300,2021.1.4,MacIntel,59.94125757
,,,,,,p,1.0243,0,264,264,264,1,264,images/pixabay_cat_003425.jpg,images/pixabay_cat_004641.jpg,Jessica U,001,2021-06-21_16h28.37.611,Cat face experiment_fully sample_0-300,2021.1.4,MacIntel,59.94125757
,,,,,,q,0.9241,0,265,265,265,1,265,images/pixabay_cat_003566.jpg,images/pixabay_cat_004489.jpg,Jessica U,001,2021-06-21_16h28.37.611,Cat face experiment_fully sample_0-300,2021.1.4,MacIntel,59.94125757
,,,,,,p,1.447,0,266,266,266,1,266,images/pixabay_cat_002930.jpg,images/pixabay_cat_001862.jpg,Jessica U,001,2021-06-21_16h28.37.611,Cat face experiment_fully sample_0-300,2021.1.4,MacIntel,59.94125757
,,,,,,q,1.3963,0,267,267,267,1,267,images/pixabay_cat_001284.jpg,images/pixabay_cat_002930.jpg,Jessica U,001,2021-06-21_16h28.37.611,Cat face experiment_fully sample_0-300,2021.1.4,MacIntel,59.94125757
,,,,,,p,1.7364,0,268,268,268,1,268,images/pixabay_cat_003638.jpg,images/pixabay_cat_004148.jpg,Jessica U,001,2021-06-21_16h28.37.611,Cat face experiment_fully sample_0-300,2021.1.4,MacIntel,59.94125757
,,,,,,p,1.76,0,269,269,269,1,269,images/flickr_cat_000266.jpg,images/flickr_cat_000240.jpg,Jessica U,001,2021-06-21_16h28.37.611,Cat face experiment_fully sample_0-300,2021.1.4,MacIntel,59.94125757
,,,,,,p,1.2435,0,270,270,270,1,270,images/flickr_cat_000022.jpg,images/pixabay_cat_001160.jpg,Jessica U,001,2021-06-21_16h28.37.611,Cat face experiment_fully sample_0-300,2021.1.4,MacIntel,59.94125757
,,,,,,q,3.2078,0,271,271,271,1,271,images/pixabay_cat_003566.jpg,images/pixabay_cat_001862.jpg,Jessica U,001,2021-06-21_16h28.37.611,Cat face experiment_fully sample_0-300,2021.1.4,MacIntel,59.94125757
,,,,,,p,0.9779,0,272,272,272,1,272,images/pixabay_cat_003228.jpg,images/pixabay_cat_000120.jpg,Jessica U,001,2021-06-21_16h28.37.611,Cat face experiment_fully sample_0-300,2021.1.4,MacIntel,59.94125757
,,,,,,q,1.7635,0,273,273,273,1,273,images/pixabay_cat_004148.jpg,images/pixabay_cat_004182.jpg,Jessica U,001,2021-06-21_16h28.37.611,Cat face experiment_fully sample_0-300,2021.1.4,MacIntel,59.94125757
,,,,,,p,1.072,0,274,274,274,1,274,images/flickr_cat_000083.jpg,images/pixabay_cat_001805.jpg,Jessica U,001,2021-06-21_16h28.37.611,Cat face experiment_fully sample_0-300,2021.1.4,MacIntel,59.94125757
,,,,,,p,1.4511,0,275,275,275,1,275,images/pixabay_cat_002601.jpg,images/flickr_cat_000206.jpg,Jessica U,001,2021-06-21_16h28.37.611,Cat face experiment_fully sample_0-300,2021.1.4,MacIntel,59.94125757
,,,,,,p,2.4127,0,276,276,276,1,276,images/pixabay_cat_001102.jpg,images/pixabay_cat_002979.jpg,Jessica U,001,2021-06-21_16h28.37.611,Cat face experiment_fully sample_0-300,2021.1.4,MacIntel,59.94125757
,,,,,,q,1.6687,0,277,277,277,1,277,images/pixabay_cat_001502.jpg,images/pixabay_cat_003077.jpg,Jessica U,001,2021-06-21_16h28.37.611,Cat face experiment_fully sample_0-300,2021.1.4,MacIntel,59.94125757
,,,,,,q,2.2345,0,278,278,278,1,278,images/pixabay_cat_000411.jpg,images/pixabay_cat_002930.jpg,Jessica U,001,2021-06-21_16h28.37.611,Cat face experiment_fully sample_0-300,2021.1.4,MacIntel,59.94125757
,,,,,,q,1.2617,0,279,279,279,1,279,images/pixabay_cat_001502.jpg,images/pixabay_cat_004049.jpg,Jessica U,001,2021-06-21_16h28.37.611,Cat face experiment_fully sample_0-300,2021.1.4,MacIntel,59.94125757
,,,,,,p,2.8358,0,280,280,280,1,280,images/pixabay_cat_003228.jpg,images/pixabay_cat_004148.jpg,Jessica U,001,2021-06-21_16h28.37.611,Cat face experiment_fully sample_0-300,2021.1.4,MacIntel,59.94125757
,,,,,,p,1.1295,0,281,281,281,1,281,images/pixabay_cat_001206.jpg,images/flickr_cat_000200.jpg,Jessica U,001,2021-06-21_16h28.37.611,Cat face experiment_fully sample_0-300,2021.1.4,MacIntel,59.94125757
,,,,,,p,1.1105,0,282,282,282,1,282,images/pixabay_cat_002614.jpg,images/pixabay_cat_001284.jpg,Jessica U,001,2021-06-21_16h28.37.611,Cat face experiment_fully sample_0-300,2021.1.4,MacIntel,59.94125757
,,,,,,p,1.0951,0,283,283,283,1,283,images/pixabay_cat_003425.jpg,images/pixabay_cat_002300.jpg,Jessica U,001,2021-06-21_16h28.37.611,Cat face experiment_fully sample_0-300,2021.1.4,MacIntel,59.94125757
,,,,,,p,3.1324,0,284,284,284,1,284,images/pixabay_cat_004049.jpg,images/pixabay_cat_001304.jpg,Jessica U,001,2021-06-21_16h28.37.611,Cat face experiment_fully sample_0-300,2021.1.4,MacIntel,59.94125757
,,,,,,p,1.0424,0,285,285,285,1,285,images/pixabay_cat_000260.jpg,images/flickr_cat_000200.jpg,Jessica U,001,2021-06-21_16h28.37.611,Cat face experiment_fully sample_0-300,2021.1.4,MacIntel,59.94125757
,,,,,,q,1.3159,0,286,286,286,1,286,images/pixabay_cat_002690.jpg,images/pixabay_cat_004049.jpg,Jessica U,001,2021-06-21_16h28.37.611,Cat face experiment_fully sample_0-300,2021.1.4,MacIntel,59.94125757
,,,,,,p,1.0416,0,287,287,287,1,287,images/pixabay_cat_001265.jpg,images/pixabay_cat_002930.jpg,Jessica U,001,2021-06-21_16h28.37.611,Cat face experiment_fully sample_0-300,2021.1.4,MacIntel,59.94125757
,,,,,,p,1.5624,0,288,288,288,1,288,images/pixabay_cat_002979.jpg,images/pixabay_cat_001805.jpg,Jessica U,001,2021-06-21_16h28.37.611,Cat face experiment_fully sample_0-300,2021.1.4,MacIntel,59.94125757
,,,,,,q,1.7604,0,289,289,289,1,289,images/pixabay_cat_000411.jpg,images/pixabay_cat_003186.jpg,Jessica U,001,2021-06-21_16h28.37.611,Cat face experiment_fully sample_0-300,2021.1.4,MacIntel,59.94125757
,,,,,,q,2.0802,0,290,290,290,1,290,images/pixabay_cat_001178.jpg,images/pixabay_cat_000883.jpg,Jessica U,001,2021-06-21_16h28.37.611,Cat face experiment_fully sample_0-300,2021.1.4,MacIntel,59.94125757
,,,,,,q,1.5536,0,291,291,291,1,291,images/flickr_cat_000206.jpg,images/pixabay_cat_002979.jpg,Jessica U,001,2021-06-21_16h28.37.611,Cat face experiment_fully sample_0-300,2021.1.4,MacIntel,59.94125757
,,,,,,p,1.643,0,292,292,292,1,292,images/flickr_cat_000266.jpg,images/pixabay_cat_002045.jpg,Jessica U,001,2021-06-21_16h28.37.611,Cat face experiment_fully sample_0-300,2021.1.4,MacIntel,59.94125757
,,,,,,q,2.1686,0,293,293,293,1,293,images/pixabay_cat_001502.jpg,images/pixabay_cat_004489.jpg,Jessica U,001,2021-06-21_16h28.37.611,Cat face experiment_fully sample_0-300,2021.1.4,MacIntel,59.94125757
,,,,,,q,1.253,0,294,294,294,1,294,images/pixabay_cat_003566.jpg,images/pixabay_cat_001805.jpg,Jessica U,001,2021-06-21_16h28.37.611,Cat face experiment_fully sample_0-300,2021.1.4,MacIntel,59.94125757
,,,,,,p,0.9882,0,295,295,295,1,295,images/pixabay_cat_001502.jpg,images/pixabay_cat_000286.jpg,Jessica U,001,2021-06-21_16h28.37.611,Cat face experiment_fully sample_0-300,2021.1.4,MacIntel,59.94125757
,,,,,,q,2.8333,0,296,296,296,1,296,images/flickr_cat_000083.jpg,images/flickr_cat_000200.jpg,Jessica U,001,2021-06-21_16h28.37.611,Cat face experiment_fully sample_0-300,2021.1.4,MacIntel,59.94125757
,,,,,,p,1.5585,0,297,297,297,1,297,images/pixabay_cat_002614.jpg,images/pixabay_cat_001862.jpg,Jessica U,001,2021-06-21_16h28.37.611,Cat face experiment_fully sample_0-300,2021.1.4,MacIntel,59.94125757
,,,,,,q,5.6181,0,298,298,298,1,298,images/pixabay_cat_003635.jpg,images/pixabay_cat_001206.jpg,Jessica U,001,2021-06-21_16h28.37.611,Cat face experiment_fully sample_0-300,2021.1.4,MacIntel,59.94125757
,,,,,,p,2.0677,0,299,299,299,1,299,images/pixabay_cat_001265.jpg,images/pixabay_cat_003927.jpg,Jessica U,001,2021-06-21_16h28.37.611,Cat face experiment_fully sample_0-300,2021.1.4,MacIntel,59.94125757
