key_resp.keys,key_resp.rt,key_resp_2.keys,key_resp_2.rt,key_resp_3.keys,key_resp_3.rt,key_resp_4.keys,key_resp_4.rt,trials.thisRepN,trials.thisTrialN,trials.thisN,trials.thisIndex,trials.ran,trail_nums,img1,img2,participant,session,date,expName,psychopyVersion,OS,frameRate
space,1.1912,space,0.414,space,0.4054,p,2.3052,0,0,0,0,1,0,images/pixabay_cat_002300.jpg,images/pixabay_cat_002930.jpg,Jesse,001,2021-07-19_16h02.09.851,Cat face experiment_fully sample_901-1225,2021.1.4,Win32,60.08171113
,,,,,,p,0.7982,0,1,1,1,1,1,images/pixabay_cat_000043.jpg,images/pixabay_cat_003927.jpg,Jesse,001,2021-07-19_16h02.09.851,Cat face experiment_fully sample_901-1225,2021.1.4,Win32,60.08171113
,,,,,,p,0.6515,0,2,2,2,1,2,images/pixabay_cat_003077.jpg,images/pixabay_cat_003638.jpg,Jesse,001,2021-07-19_16h02.09.851,Cat face experiment_fully sample_901-1225,2021.1.4,Win32,60.08171113
,,,,,,p,0.684,0,3,3,3,1,3,images/pixabay_cat_003927.jpg,images/pixabay_cat_003121.jpg,Jesse,001,2021-07-19_16h02.09.851,Cat face experiment_fully sample_901-1225,2021.1.4,Win32,60.08171113
,,,,,,q,0.7024,0,4,4,4,1,4,images/pixabay_cat_004292.jpg,images/pixabay_cat_001597.jpg,Jesse,001,2021-07-19_16h02.09.851,Cat face experiment_fully sample_901-1225,2021.1.4,Win32,60.08171113
,,,,,,q,0.6169,0,5,5,5,1,5,images/pixabay_cat_004292.jpg,images/pixabay_cat_003186.jpg,Jesse,001,2021-07-19_16h02.09.851,Cat face experiment_fully sample_901-1225,2021.1.4,Win32,60.08171113
,,,,,,p,0.6455,0,6,6,6,1,6,images/pixabay_cat_001178.jpg,images/pixabay_cat_002930.jpg,Jesse,001,2021-07-19_16h02.09.851,Cat face experiment_fully sample_901-1225,2021.1.4,Win32,60.08171113
,,,,,,p,0.6499,0,7,7,7,1,7,images/pixabay_cat_003228.jpg,images/pixabay_cat_001862.jpg,Jesse,001,2021-07-19_16h02.09.851,Cat face experiment_fully sample_901-1225,2021.1.4,Win32,60.08171113
,,,,,,p,0.767,0,8,8,8,1,8,images/pixabay_cat_002601.jpg,images/pixabay_cat_004182.jpg,Jesse,001,2021-07-19_16h02.09.851,Cat face experiment_fully sample_901-1225,2021.1.4,Win32,60.08171113
,,,,,,q,0.6214,0,9,9,9,1,9,images/pixabay_cat_000043.jpg,images/pixabay_cat_004049.jpg,Jesse,001,2021-07-19_16h02.09.851,Cat face experiment_fully sample_901-1225,2021.1.4,Win32,60.08171113
,,,,,,p,0.7417,0,10,10,10,1,10,images/pixabay_cat_003425.jpg,images/pixabay_cat_002690.jpg,Jesse,001,2021-07-19_16h02.09.851,Cat face experiment_fully sample_901-1225,2021.1.4,Win32,60.08171113
,,,,,,q,0.7605,0,11,11,11,1,11,images/pixabay_cat_003927.jpg,images/pixabay_cat_003638.jpg,Jesse,001,2021-07-19_16h02.09.851,Cat face experiment_fully sample_901-1225,2021.1.4,Win32,60.08171113
,,,,,,q,0.6994,0,12,12,12,1,12,images/pixabay_cat_001597.jpg,images/pixabay_cat_001206.jpg,Jesse,001,2021-07-19_16h02.09.851,Cat face experiment_fully sample_901-1225,2021.1.4,Win32,60.08171113
,,,,,,p,0.6026,0,13,13,13,1,13,images/pixabay_cat_004049.jpg,images/pixabay_cat_002300.jpg,Jesse,001,2021-07-19_16h02.09.851,Cat face experiment_fully sample_901-1225,2021.1.4,Win32,60.08171113
,,,,,,p,0.5586,0,14,14,14,1,14,images/pixabay_cat_004049.jpg,images/pixabay_cat_003312.jpg,Jesse,001,2021-07-19_16h02.09.851,Cat face experiment_fully sample_901-1225,2021.1.4,Win32,60.08171113
,,,,,,p,0.663,0,15,15,15,1,15,images/pixabay_cat_000411.jpg,images/pixabay_cat_003566.jpg,Jesse,001,2021-07-19_16h02.09.851,Cat face experiment_fully sample_901-1225,2021.1.4,Win32,60.08171113
,,,,,,p,0.6018,0,16,16,16,1,16,images/pixabay_cat_000411.jpg,images/pixabay_cat_002614.jpg,Jesse,001,2021-07-19_16h02.09.851,Cat face experiment_fully sample_901-1225,2021.1.4,Win32,60.08171113
,,,,,,q,0.671,0,17,17,17,1,17,images/pixabay_cat_004049.jpg,images/flickr_cat_000083.jpg,Jesse,001,2021-07-19_16h02.09.851,Cat face experiment_fully sample_901-1225,2021.1.4,Win32,60.08171113
,,,,,,q,0.5935,0,18,18,18,1,18,images/pixabay_cat_003425.jpg,images/pixabay_cat_003566.jpg,Jesse,001,2021-07-19_16h02.09.851,Cat face experiment_fully sample_901-1225,2021.1.4,Win32,60.08171113
,,,,,,p,0.6971,0,19,19,19,1,19,images/flickr_cat_000022.jpg,images/pixabay_cat_004489.jpg,Jesse,001,2021-07-19_16h02.09.851,Cat face experiment_fully sample_901-1225,2021.1.4,Win32,60.08171113
,,,,,,p,0.7498,0,20,20,20,1,20,images/pixabay_cat_000260.jpg,images/flickr_cat_000083.jpg,Jesse,001,2021-07-19_16h02.09.851,Cat face experiment_fully sample_901-1225,2021.1.4,Win32,60.08171113
,,,,,,q,0.7666,0,21,21,21,1,21,images/flickr_cat_000581.jpg,images/pixabay_cat_002601.jpg,Jesse,001,2021-07-19_16h02.09.851,Cat face experiment_fully sample_901-1225,2021.1.4,Win32,60.08171113
,,,,,,q,0.5089,0,22,22,22,1,22,images/pixabay_cat_003425.jpg,images/pixabay_cat_002601.jpg,Jesse,001,2021-07-19_16h02.09.851,Cat face experiment_fully sample_901-1225,2021.1.4,Win32,60.08171113
,,,,,,p,0.7668,0,23,23,23,1,23,images/pixabay_cat_003566.jpg,images/flickr_cat_000022.jpg,Jesse,001,2021-07-19_16h02.09.851,Cat face experiment_fully sample_901-1225,2021.1.4,Win32,60.08171113
,,,,,,p,0.6666,0,24,24,24,1,24,images/pixabay_cat_003186.jpg,images/pixabay_cat_000286.jpg,Jesse,001,2021-07-19_16h02.09.851,Cat face experiment_fully sample_901-1225,2021.1.4,Win32,60.08171113
,,,,,,p,0.6703,0,25,25,25,1,25,images/pixabay_cat_003635.jpg,images/pixabay_cat_002979.jpg,Jesse,001,2021-07-19_16h02.09.851,Cat face experiment_fully sample_901-1225,2021.1.4,Win32,60.08171113
,,,,,,p,0.7065,0,26,26,26,1,26,images/flickr_cat_000083.jpg,images/pixabay_cat_004148.jpg,Jesse,001,2021-07-19_16h02.09.851,Cat face experiment_fully sample_901-1225,2021.1.4,Win32,60.08171113
,,,,,,p,0.6943,0,27,27,27,1,27,images/pixabay_cat_003228.jpg,images/pixabay_cat_001160.jpg,Jesse,001,2021-07-19_16h02.09.851,Cat face experiment_fully sample_901-1225,2021.1.4,Win32,60.08171113
,,,,,,q,1.1408,0,28,28,28,1,28,images/pixabay_cat_000120.jpg,images/pixabay_cat_001178.jpg,Jesse,001,2021-07-19_16h02.09.851,Cat face experiment_fully sample_901-1225,2021.1.4,Win32,60.08171113
,,,,,,p,0.6275,0,29,29,29,1,29,images/flickr_cat_000266.jpg,images/pixabay_cat_000100.jpg,Jesse,001,2021-07-19_16h02.09.851,Cat face experiment_fully sample_901-1225,2021.1.4,Win32,60.08171113
,,,,,,q,0.7803,0,30,30,30,1,30,images/pixabay_cat_000120.jpg,images/pixabay_cat_002614.jpg,Jesse,001,2021-07-19_16h02.09.851,Cat face experiment_fully sample_901-1225,2021.1.4,Win32,60.08171113
,,,,,,q,0.7162,0,31,31,31,1,31,images/pixabay_cat_002930.jpg,images/pixabay_cat_000100.jpg,Jesse,001,2021-07-19_16h02.09.851,Cat face experiment_fully sample_901-1225,2021.1.4,Win32,60.08171113
,,,,,,p,0.6209,0,32,32,32,1,32,images/flickr_cat_000240.jpg,images/pixabay_cat_001206.jpg,Jesse,001,2021-07-19_16h02.09.851,Cat face experiment_fully sample_901-1225,2021.1.4,Win32,60.08171113
,,,,,,p,0.7066,0,33,33,33,1,33,images/flickr_cat_000271.jpg,images/pixabay_cat_004182.jpg,Jesse,001,2021-07-19_16h02.09.851,Cat face experiment_fully sample_901-1225,2021.1.4,Win32,60.08171113
,,,,,,q,0.8093,0,34,34,34,1,34,images/flickr_cat_000581.jpg,images/pixabay_cat_003566.jpg,Jesse,001,2021-07-19_16h02.09.851,Cat face experiment_fully sample_901-1225,2021.1.4,Win32,60.08171113
,,,,,,q,0.6463,0,35,35,35,1,35,images/pixabay_cat_002045.jpg,images/pixabay_cat_003312.jpg,Jesse,001,2021-07-19_16h02.09.851,Cat face experiment_fully sample_901-1225,2021.1.4,Win32,60.08171113
,,,,,,p,0.6515,0,36,36,36,1,36,images/pixabay_cat_001265.jpg,images/pixabay_cat_000120.jpg,Jesse,001,2021-07-19_16h02.09.851,Cat face experiment_fully sample_901-1225,2021.1.4,Win32,60.08171113
,,,,,,p,0.6393,0,37,37,37,1,37,images/pixabay_cat_001502.jpg,images/pixabay_cat_002045.jpg,Jesse,001,2021-07-19_16h02.09.851,Cat face experiment_fully sample_901-1225,2021.1.4,Win32,60.08171113
,,,,,,p,0.7736,0,38,38,38,1,38,images/pixabay_cat_003635.jpg,images/pixabay_cat_001597.jpg,Jesse,001,2021-07-19_16h02.09.851,Cat face experiment_fully sample_901-1225,2021.1.4,Win32,60.08171113
,,,,,,p,0.6789,0,39,39,39,1,39,images/pixabay_cat_003186.jpg,images/pixabay_cat_001597.jpg,Jesse,001,2021-07-19_16h02.09.851,Cat face experiment_fully sample_901-1225,2021.1.4,Win32,60.08171113
,,,,,,q,0.7795,0,40,40,40,1,40,images/pixabay_cat_001502.jpg,images/flickr_cat_000271.jpg,Jesse,001,2021-07-19_16h02.09.851,Cat face experiment_fully sample_901-1225,2021.1.4,Win32,60.08171113
,,,,,,q,0.6997,0,41,41,41,1,41,images/pixabay_cat_001206.jpg,images/pixabay_cat_000100.jpg,Jesse,001,2021-07-19_16h02.09.851,Cat face experiment_fully sample_901-1225,2021.1.4,Win32,60.08171113
,,,,,,q,0.7517,0,42,42,42,1,42,images/flickr_cat_000581.jpg,images/flickr_cat_000206.jpg,Jesse,001,2021-07-19_16h02.09.851,Cat face experiment_fully sample_901-1225,2021.1.4,Win32,60.08171113
,,,,,,q,0.9839,0,43,43,43,1,43,images/pixabay_cat_001502.jpg,images/flickr_cat_000240.jpg,Jesse,001,2021-07-19_16h02.09.851,Cat face experiment_fully sample_901-1225,2021.1.4,Win32,60.08171113
,,,,,,p,0.8014,0,44,44,44,1,44,images/pixabay_cat_001102.jpg,images/pixabay_cat_004148.jpg,Jesse,001,2021-07-19_16h02.09.851,Cat face experiment_fully sample_901-1225,2021.1.4,Win32,60.08171113
,,,,,,p,0.7204,0,45,45,45,1,45,images/pixabay_cat_003077.jpg,images/pixabay_cat_004489.jpg,Jesse,001,2021-07-19_16h02.09.851,Cat face experiment_fully sample_901-1225,2021.1.4,Win32,60.08171113
,,,,,,q,0.7723,0,46,46,46,1,46,images/pixabay_cat_004489.jpg,images/pixabay_cat_003638.jpg,Jesse,001,2021-07-19_16h02.09.851,Cat face experiment_fully sample_901-1225,2021.1.4,Win32,60.08171113
,,,,,,p,0.8397,0,47,47,47,1,47,images/pixabay_cat_003635.jpg,images/flickr_cat_000022.jpg,Jesse,001,2021-07-19_16h02.09.851,Cat face experiment_fully sample_901-1225,2021.1.4,Win32,60.08171113
,,,,,,q,0.8734,0,48,48,48,1,48,images/pixabay_cat_000260.jpg,images/pixabay_cat_003425.jpg,Jesse,001,2021-07-19_16h02.09.851,Cat face experiment_fully sample_901-1225,2021.1.4,Win32,60.08171113
,,,,,,p,0.7595,0,49,49,49,1,49,images/pixabay_cat_002614.jpg,images/pixabay_cat_001206.jpg,Jesse,001,2021-07-19_16h02.09.851,Cat face experiment_fully sample_901-1225,2021.1.4,Win32,60.08171113
,,,,,,p,0.762,0,50,50,50,1,50,images/pixabay_cat_003927.jpg,images/pixabay_cat_000883.jpg,Jesse,001,2021-07-19_16h02.09.851,Cat face experiment_fully sample_901-1225,2021.1.4,Win32,60.08171113
,,,,,,q,1.3216,0,51,51,51,1,51,images/flickr_cat_000206.jpg,images/flickr_cat_000271.jpg,Jesse,001,2021-07-19_16h02.09.851,Cat face experiment_fully sample_901-1225,2021.1.4,Win32,60.08171113
,,,,,,q,0.8384,0,52,52,52,1,52,images/pixabay_cat_000120.jpg,images/pixabay_cat_001862.jpg,Jesse,001,2021-07-19_16h02.09.851,Cat face experiment_fully sample_901-1225,2021.1.4,Win32,60.08171113
,,,,,,q,0.7835,0,53,53,53,1,53,images/pixabay_cat_004049.jpg,images/pixabay_cat_000100.jpg,Jesse,001,2021-07-19_16h02.09.851,Cat face experiment_fully sample_901-1225,2021.1.4,Win32,60.08171113
,,,,,,p,0.8569,0,54,54,54,1,54,images/pixabay_cat_001102.jpg,images/pixabay_cat_002614.jpg,Jesse,001,2021-07-19_16h02.09.851,Cat face experiment_fully sample_901-1225,2021.1.4,Win32,60.08171113
,,,,,,p,0.9892,0,55,55,55,1,55,images/pixabay_cat_004292.jpg,images/pixabay_cat_000100.jpg,Jesse,001,2021-07-19_16h02.09.851,Cat face experiment_fully sample_901-1225,2021.1.4,Win32,60.08171113
,,,,,,p,1.1509,0,56,56,56,1,56,images/pixabay_cat_000411.jpg,images/pixabay_cat_004641.jpg,Jesse,001,2021-07-19_16h02.09.851,Cat face experiment_fully sample_901-1225,2021.1.4,Win32,60.08171113
,,,,,,p,0.9167,0,57,57,57,1,57,images/flickr_cat_000022.jpg,images/pixabay_cat_001284.jpg,Jesse,001,2021-07-19_16h02.09.851,Cat face experiment_fully sample_901-1225,2021.1.4,Win32,60.08171113
,,,,,,p,0.7351,0,58,58,58,1,58,images/pixabay_cat_003077.jpg,images/pixabay_cat_001862.jpg,Jesse,001,2021-07-19_16h02.09.851,Cat face experiment_fully sample_901-1225,2021.1.4,Win32,60.08171113
,,,,,,p,1.2775,0,59,59,59,1,59,images/pixabay_cat_000411.jpg,images/pixabay_cat_002690.jpg,Jesse,001,2021-07-19_16h02.09.851,Cat face experiment_fully sample_901-1225,2021.1.4,Win32,60.08171113
,,,,,,q,1.1241,0,60,60,60,1,60,images/flickr_cat_000083.jpg,images/pixabay_cat_002614.jpg,Jesse,001,2021-07-19_16h02.09.851,Cat face experiment_fully sample_901-1225,2021.1.4,Win32,60.08171113
,,,,,,p,0.7918,0,61,61,61,1,61,images/pixabay_cat_002045.jpg,images/flickr_cat_000285.jpg,Jesse,001,2021-07-19_16h02.09.851,Cat face experiment_fully sample_901-1225,2021.1.4,Win32,60.08171113
,,,,,,p,0.8911,0,62,62,62,1,62,images/pixabay_cat_000411.jpg,images/pixabay_cat_000883.jpg,Jesse,001,2021-07-19_16h02.09.851,Cat face experiment_fully sample_901-1225,2021.1.4,Win32,60.08171113
,,,,,,p,0.7939,0,63,63,63,1,63,images/pixabay_cat_001805.jpg,images/flickr_cat_000200.jpg,Jesse,001,2021-07-19_16h02.09.851,Cat face experiment_fully sample_901-1225,2021.1.4,Win32,60.08171113
,,,,,,q,0.8281,0,64,64,64,1,64,images/flickr_cat_000581.jpg,images/flickr_cat_000022.jpg,Jesse,001,2021-07-19_16h02.09.851,Cat face experiment_fully sample_901-1225,2021.1.4,Win32,60.08171113
,,,,,,p,0.8126,0,65,65,65,1,65,images/pixabay_cat_003228.jpg,images/pixabay_cat_003566.jpg,Jesse,001,2021-07-19_16h02.09.851,Cat face experiment_fully sample_901-1225,2021.1.4,Win32,60.08171113
,,,,,,q,0.9786,0,66,66,66,1,66,images/flickr_cat_000206.jpg,images/flickr_cat_000200.jpg,Jesse,001,2021-07-19_16h02.09.851,Cat face experiment_fully sample_901-1225,2021.1.4,Win32,60.08171113
,,,,,,q,0.7476,0,67,67,67,1,67,images/pixabay_cat_000043.jpg,images/pixabay_cat_003121.jpg,Jesse,001,2021-07-19_16h02.09.851,Cat face experiment_fully sample_901-1225,2021.1.4,Win32,60.08171113
,,,,,,p,0.8664,0,68,68,68,1,68,images/flickr_cat_000083.jpg,images/pixabay_cat_002930.jpg,Jesse,001,2021-07-19_16h02.09.851,Cat face experiment_fully sample_901-1225,2021.1.4,Win32,60.08171113
,,,,,,q,0.8166,0,69,69,69,1,69,images/flickr_cat_000240.jpg,images/pixabay_cat_001862.jpg,Jesse,001,2021-07-19_16h02.09.851,Cat face experiment_fully sample_901-1225,2021.1.4,Win32,60.08171113
,,,,,,p,0.6858,0,70,70,70,1,70,images/flickr_cat_000266.jpg,images/pixabay_cat_002300.jpg,Jesse,001,2021-07-19_16h02.09.851,Cat face experiment_fully sample_901-1225,2021.1.4,Win32,60.08171113
,,,,,,q,0.9189,0,71,71,71,1,71,images/pixabay_cat_002690.jpg,images/pixabay_cat_003927.jpg,Jesse,001,2021-07-19_16h02.09.851,Cat face experiment_fully sample_901-1225,2021.1.4,Win32,60.08171113
,,,,,,p,0.8355,0,72,72,72,1,72,images/pixabay_cat_003228.jpg,images/pixabay_cat_002979.jpg,Jesse,001,2021-07-19_16h02.09.851,Cat face experiment_fully sample_901-1225,2021.1.4,Win32,60.08171113
,,,,,,q,0.9333,0,73,73,73,1,73,images/pixabay_cat_001206.jpg,images/pixabay_cat_001178.jpg,Jesse,001,2021-07-19_16h02.09.851,Cat face experiment_fully sample_901-1225,2021.1.4,Win32,60.08171113
,,,,,,q,1.0335,0,74,74,74,1,74,images/pixabay_cat_002601.jpg,images/pixabay_cat_001597.jpg,Jesse,001,2021-07-19_16h02.09.851,Cat face experiment_fully sample_901-1225,2021.1.4,Win32,60.08171113
,,,,,,p,0.8334,0,75,75,75,1,75,images/pixabay_cat_003635.jpg,images/pixabay_cat_002930.jpg,Jesse,001,2021-07-19_16h02.09.851,Cat face experiment_fully sample_901-1225,2021.1.4,Win32,60.08171113
,,,,,,q,1.0792,0,76,76,76,1,76,images/flickr_cat_000083.jpg,images/flickr_cat_000271.jpg,Jesse,001,2021-07-19_16h02.09.851,Cat face experiment_fully sample_901-1225,2021.1.4,Win32,60.08171113
,,,,,,p,0.8955,0,77,77,77,1,77,images/pixabay_cat_004292.jpg,images/pixabay_cat_004148.jpg,Jesse,001,2021-07-19_16h02.09.851,Cat face experiment_fully sample_901-1225,2021.1.4,Win32,60.08171113
,,,,,,q,0.895,0,78,78,78,1,78,images/pixabay_cat_002690.jpg,images/pixabay_cat_003121.jpg,Jesse,001,2021-07-19_16h02.09.851,Cat face experiment_fully sample_901-1225,2021.1.4,Win32,60.08171113
,,,,,,q,0.7311,0,79,79,79,1,79,images/pixabay_cat_000260.jpg,images/pixabay_cat_002930.jpg,Jesse,001,2021-07-19_16h02.09.851,Cat face experiment_fully sample_901-1225,2021.1.4,Win32,60.08171113
,,,,,,p,0.7334,0,80,80,80,1,80,images/pixabay_cat_002690.jpg,images/pixabay_cat_001597.jpg,Jesse,001,2021-07-19_16h02.09.851,Cat face experiment_fully sample_901-1225,2021.1.4,Win32,60.08171113
,,,,,,p,0.8018,0,81,81,81,1,81,images/pixabay_cat_002690.jpg,images/pixabay_cat_001284.jpg,Jesse,001,2021-07-19_16h02.09.851,Cat face experiment_fully sample_901-1225,2021.1.4,Win32,60.08171113
,,,,,,p,0.9168,0,82,82,82,1,82,images/pixabay_cat_004292.jpg,images/flickr_cat_000271.jpg,Jesse,001,2021-07-19_16h02.09.851,Cat face experiment_fully sample_901-1225,2021.1.4,Win32,60.08171113
,,,,,,q,1.0637,0,83,83,83,1,83,images/pixabay_cat_002601.jpg,images/pixabay_cat_003927.jpg,Jesse,001,2021-07-19_16h02.09.851,Cat face experiment_fully sample_901-1225,2021.1.4,Win32,60.08171113
,,,,,,p,0.6999,0,84,84,84,1,84,images/flickr_cat_000240.jpg,images/pixabay_cat_000286.jpg,Jesse,001,2021-07-19_16h02.09.851,Cat face experiment_fully sample_901-1225,2021.1.4,Win32,60.08171113
,,,,,,q,0.7843,0,85,85,85,1,85,images/pixabay_cat_004489.jpg,images/flickr_cat_000271.jpg,Jesse,001,2021-07-19_16h02.09.851,Cat face experiment_fully sample_901-1225,2021.1.4,Win32,60.08171113
,,,,,,p,0.8515,0,86,86,86,1,86,images/pixabay_cat_003077.jpg,images/pixabay_cat_000120.jpg,Jesse,001,2021-07-19_16h02.09.851,Cat face experiment_fully sample_901-1225,2021.1.4,Win32,60.08171113
,,,,,,p,0.8348,0,87,87,87,1,87,images/pixabay_cat_003077.jpg,images/pixabay_cat_000286.jpg,Jesse,001,2021-07-19_16h02.09.851,Cat face experiment_fully sample_901-1225,2021.1.4,Win32,60.08171113
,,,,,,q,0.8509,0,88,88,88,1,88,images/flickr_cat_000581.jpg,images/flickr_cat_000285.jpg,Jesse,001,2021-07-19_16h02.09.851,Cat face experiment_fully sample_901-1225,2021.1.4,Win32,60.08171113
,,,,,,p,0.9168,0,89,89,89,1,89,images/pixabay_cat_003425.jpg,images/pixabay_cat_003638.jpg,Jesse,001,2021-07-19_16h02.09.851,Cat face experiment_fully sample_901-1225,2021.1.4,Win32,60.08171113
,,,,,,q,0.8341,0,90,90,90,1,90,images/flickr_cat_000581.jpg,images/pixabay_cat_003121.jpg,Jesse,001,2021-07-19_16h02.09.851,Cat face experiment_fully sample_901-1225,2021.1.4,Win32,60.08171113
,,,,,,q,0.7701,0,91,91,91,1,91,images/pixabay_cat_001304.jpg,images/pixabay_cat_000100.jpg,Jesse,001,2021-07-19_16h02.09.851,Cat face experiment_fully sample_901-1225,2021.1.4,Win32,60.08171113
,,,,,,p,0.8333,0,92,92,92,1,92,images/pixabay_cat_001502.jpg,images/pixabay_cat_000043.jpg,Jesse,001,2021-07-19_16h02.09.851,Cat face experiment_fully sample_901-1225,2021.1.4,Win32,60.08171113
,,,,,,p,0.7888,0,93,93,93,1,93,images/pixabay_cat_004489.jpg,images/pixabay_cat_002300.jpg,Jesse,001,2021-07-19_16h02.09.851,Cat face experiment_fully sample_901-1225,2021.1.4,Win32,60.08171113
,,,,,,p,0.6915,0,94,94,94,1,94,images/pixabay_cat_001206.jpg,images/pixabay_cat_004148.jpg,Jesse,001,2021-07-19_16h02.09.851,Cat face experiment_fully sample_901-1225,2021.1.4,Win32,60.08171113
,,,,,,p,0.8578,0,95,95,95,1,95,images/pixabay_cat_002601.jpg,images/pixabay_cat_003121.jpg,Jesse,001,2021-07-19_16h02.09.851,Cat face experiment_fully sample_901-1225,2021.1.4,Win32,60.08171113
,,,,,,p,0.6939,0,96,96,96,1,96,images/pixabay_cat_004292.jpg,images/flickr_cat_000083.jpg,Jesse,001,2021-07-19_16h02.09.851,Cat face experiment_fully sample_901-1225,2021.1.4,Win32,60.08171113
,,,,,,p,0.8443,0,97,97,97,1,97,images/pixabay_cat_001102.jpg,images/pixabay_cat_000120.jpg,Jesse,001,2021-07-19_16h02.09.851,Cat face experiment_fully sample_901-1225,2021.1.4,Win32,60.08171113
,,,,,,q,0.8504,0,98,98,98,1,98,images/pixabay_cat_000411.jpg,images/pixabay_cat_003312.jpg,Jesse,001,2021-07-19_16h02.09.851,Cat face experiment_fully sample_901-1225,2021.1.4,Win32,60.08171113
,,,,,,q,0.6502,0,99,99,99,1,99,images/pixabay_cat_001206.jpg,images/pixabay_cat_003312.jpg,Jesse,001,2021-07-19_16h02.09.851,Cat face experiment_fully sample_901-1225,2021.1.4,Win32,60.08171113
,,,,,,p,0.7997,0,100,100,100,1,100,images/flickr_cat_000581.jpg,images/flickr_cat_000266.jpg,Jesse,001,2021-07-19_16h02.09.851,Cat face experiment_fully sample_901-1225,2021.1.4,Win32,60.08171113
,,,,,,p,0.7841,0,101,101,101,1,101,images/pixabay_cat_001265.jpg,images/pixabay_cat_001862.jpg,Jesse,001,2021-07-19_16h02.09.851,Cat face experiment_fully sample_901-1225,2021.1.4,Win32,60.08171113
,,,,,,p,0.7199,0,102,102,102,1,102,images/pixabay_cat_002690.jpg,images/pixabay_cat_001265.jpg,Jesse,001,2021-07-19_16h02.09.851,Cat face experiment_fully sample_901-1225,2021.1.4,Win32,60.08171113
,,,,,,p,0.7384,0,103,103,103,1,103,images/pixabay_cat_002690.jpg,images/pixabay_cat_001862.jpg,Jesse,001,2021-07-19_16h02.09.851,Cat face experiment_fully sample_901-1225,2021.1.4,Win32,60.08171113
,,,,,,q,0.7408,0,104,104,104,1,104,images/flickr_cat_000581.jpg,images/pixabay_cat_002930.jpg,Jesse,001,2021-07-19_16h02.09.851,Cat face experiment_fully sample_901-1225,2021.1.4,Win32,60.08171113
,,,,,,q,0.7592,0,105,105,105,1,105,images/pixabay_cat_003566.jpg,images/pixabay_cat_002614.jpg,Jesse,001,2021-07-19_16h02.09.851,Cat face experiment_fully sample_901-1225,2021.1.4,Win32,60.08171113
,,,,,,p,0.8436,0,106,106,106,1,106,images/flickr_cat_000206.jpg,images/pixabay_cat_001206.jpg,Jesse,001,2021-07-19_16h02.09.851,Cat face experiment_fully sample_901-1225,2021.1.4,Win32,60.08171113
,,,,,,p,0.6796,0,107,107,107,1,107,images/pixabay_cat_001597.jpg,images/pixabay_cat_002045.jpg,Jesse,001,2021-07-19_16h02.09.851,Cat face experiment_fully sample_901-1225,2021.1.4,Win32,60.08171113
,,,,,,q,0.7667,0,108,108,108,1,108,images/flickr_cat_000083.jpg,images/pixabay_cat_001206.jpg,Jesse,001,2021-07-19_16h02.09.851,Cat face experiment_fully sample_901-1225,2021.1.4,Win32,60.08171113
,,,,,,p,0.7692,0,109,109,109,1,109,images/pixabay_cat_002979.jpg,images/pixabay_cat_000286.jpg,Jesse,001,2021-07-19_16h02.09.851,Cat face experiment_fully sample_901-1225,2021.1.4,Win32,60.08171113
,,,,,,p,0.837,0,110,110,110,1,110,images/pixabay_cat_003077.jpg,images/pixabay_cat_002300.jpg,Jesse,001,2021-07-19_16h02.09.851,Cat face experiment_fully sample_901-1225,2021.1.4,Win32,60.08171113
,,,,,,p,0.7884,0,111,111,111,1,111,images/pixabay_cat_004049.jpg,images/pixabay_cat_002930.jpg,Jesse,001,2021-07-19_16h02.09.851,Cat face experiment_fully sample_901-1225,2021.1.4,Win32,60.08171113
,,,,,,q,0.807,0,112,112,112,1,112,images/flickr_cat_000285.jpg,images/pixabay_cat_002300.jpg,Jesse,001,2021-07-19_16h02.09.851,Cat face experiment_fully sample_901-1225,2021.1.4,Win32,60.08171113
,,,,,,p,0.6166,0,113,113,113,1,113,images/pixabay_cat_003635.jpg,images/pixabay_cat_003566.jpg,Jesse,001,2021-07-19_16h02.09.851,Cat face experiment_fully sample_901-1225,2021.1.4,Win32,60.08171113
,,,,,,q,0.8311,0,114,114,114,1,114,images/pixabay_cat_003228.jpg,images/pixabay_cat_004049.jpg,Jesse,001,2021-07-19_16h02.09.851,Cat face experiment_fully sample_901-1225,2021.1.4,Win32,60.08171113
,,,,,,q,0.9472,0,115,115,115,1,115,images/flickr_cat_000581.jpg,images/pixabay_cat_002045.jpg,Jesse,001,2021-07-19_16h02.09.851,Cat face experiment_fully sample_901-1225,2021.1.4,Win32,60.08171113
,,,,,,p,0.6519,0,116,116,116,1,116,images/pixabay_cat_001178.jpg,images/pixabay_cat_000286.jpg,Jesse,001,2021-07-19_16h02.09.851,Cat face experiment_fully sample_901-1225,2021.1.4,Win32,60.08171113
,,,,,,p,0.7879,0,117,117,117,1,117,images/pixabay_cat_003425.jpg,images/pixabay_cat_003927.jpg,Jesse,001,2021-07-19_16h02.09.851,Cat face experiment_fully sample_901-1225,2021.1.4,Win32,60.08171113
,,,,,,p,0.7167,0,118,118,118,1,118,images/pixabay_cat_002601.jpg,images/pixabay_cat_000120.jpg,Jesse,001,2021-07-19_16h02.09.851,Cat face experiment_fully sample_901-1225,2021.1.4,Win32,60.08171113
,,,,,,p,0.6955,0,119,119,119,1,119,images/pixabay_cat_003635.jpg,images/pixabay_cat_003927.jpg,Jesse,001,2021-07-19_16h02.09.851,Cat face experiment_fully sample_901-1225,2021.1.4,Win32,60.08171113
,,,,,,p,0.7642,0,120,120,120,1,120,images/pixabay_cat_002045.jpg,images/pixabay_cat_001304.jpg,Jesse,001,2021-07-19_16h02.09.851,Cat face experiment_fully sample_901-1225,2021.1.4,Win32,60.08171113
,,,,,,q,0.8003,0,121,121,121,1,121,images/pixabay_cat_003566.jpg,images/pixabay_cat_000100.jpg,Jesse,001,2021-07-19_16h02.09.851,Cat face experiment_fully sample_901-1225,2021.1.4,Win32,60.08171113
,,,,,,q,0.8014,0,122,122,122,1,122,images/pixabay_cat_003077.jpg,images/pixabay_cat_003121.jpg,Jesse,001,2021-07-19_16h02.09.851,Cat face experiment_fully sample_901-1225,2021.1.4,Win32,60.08171113
,,,,,,q,0.8526,0,123,123,123,1,123,images/flickr_cat_000022.jpg,images/pixabay_cat_001206.jpg,Jesse,001,2021-07-19_16h02.09.851,Cat face experiment_fully sample_901-1225,2021.1.4,Win32,60.08171113
,,,,,,p,0.6733,0,124,124,124,1,124,images/flickr_cat_000266.jpg,images/pixabay_cat_001284.jpg,Jesse,001,2021-07-19_16h02.09.851,Cat face experiment_fully sample_901-1225,2021.1.4,Win32,60.08171113
,,,,,,q,0.8748,0,125,125,125,1,125,images/pixabay_cat_002979.jpg,images/pixabay_cat_003121.jpg,Jesse,001,2021-07-19_16h02.09.851,Cat face experiment_fully sample_901-1225,2021.1.4,Win32,60.08171113
,,,,,,p,0.809,0,126,126,126,1,126,images/pixabay_cat_003425.jpg,images/flickr_cat_000083.jpg,Jesse,001,2021-07-19_16h02.09.851,Cat face experiment_fully sample_901-1225,2021.1.4,Win32,60.08171113
,,,,,,p,0.8767,0,127,127,127,1,127,images/pixabay_cat_003425.jpg,images/pixabay_cat_001206.jpg,Jesse,001,2021-07-19_16h02.09.851,Cat face experiment_fully sample_901-1225,2021.1.4,Win32,60.08171113
,,,,,,p,0.8278,0,128,128,128,1,128,images/pixabay_cat_003635.jpg,images/flickr_cat_000200.jpg,Jesse,001,2021-07-19_16h02.09.851,Cat face experiment_fully sample_901-1225,2021.1.4,Win32,60.08171113
,,,,,,p,0.8791,0,129,129,129,1,129,images/pixabay_cat_001502.jpg,images/pixabay_cat_001206.jpg,Jesse,001,2021-07-19_16h02.09.851,Cat face experiment_fully sample_901-1225,2021.1.4,Win32,60.08171113
,,,,,,p,0.8462,0,130,130,130,1,130,images/pixabay_cat_004292.jpg,images/pixabay_cat_003638.jpg,Jesse,001,2021-07-19_16h02.09.851,Cat face experiment_fully sample_901-1225,2021.1.4,Win32,60.08171113
,,,,,,q,0.6997,0,131,131,131,1,131,images/flickr_cat_000581.jpg,images/pixabay_cat_001284.jpg,Jesse,001,2021-07-19_16h02.09.851,Cat face experiment_fully sample_901-1225,2021.1.4,Win32,60.08171113
,,,,,,q,0.7201,0,132,132,132,1,132,images/pixabay_cat_000043.jpg,images/pixabay_cat_000100.jpg,Jesse,001,2021-07-19_16h02.09.851,Cat face experiment_fully sample_901-1225,2021.1.4,Win32,60.08171113
,,,,,,p,0.6746,0,133,133,133,1,133,images/flickr_cat_000083.jpg,images/pixabay_cat_001862.jpg,Jesse,001,2021-07-19_16h02.09.851,Cat face experiment_fully sample_901-1225,2021.1.4,Win32,60.08171113
,,,,,,p,0.6461,0,134,134,134,1,134,images/pixabay_cat_001284.jpg,images/pixabay_cat_000883.jpg,Jesse,001,2021-07-19_16h02.09.851,Cat face experiment_fully sample_901-1225,2021.1.4,Win32,60.08171113
,,,,,,q,0.6668,0,135,135,135,1,135,images/pixabay_cat_001265.jpg,images/pixabay_cat_004148.jpg,Jesse,001,2021-07-19_16h02.09.851,Cat face experiment_fully sample_901-1225,2021.1.4,Win32,60.08171113
,,,,,,p,0.6218,0,136,136,136,1,136,images/pixabay_cat_000260.jpg,images/flickr_cat_000266.jpg,Jesse,001,2021-07-19_16h02.09.851,Cat face experiment_fully sample_901-1225,2021.1.4,Win32,60.08171113
,,,,,,q,0.6103,0,137,137,137,1,137,images/flickr_cat_000266.jpg,images/pixabay_cat_004148.jpg,Jesse,001,2021-07-19_16h02.09.851,Cat face experiment_fully sample_901-1225,2021.1.4,Win32,60.08171113
,,,,,,p,0.6665,0,138,138,138,1,138,images/pixabay_cat_001102.jpg,images/pixabay_cat_003312.jpg,Jesse,001,2021-07-19_16h02.09.851,Cat face experiment_fully sample_901-1225,2021.1.4,Win32,60.08171113
,,,,,,q,0.8331,0,139,139,139,1,139,images/flickr_cat_000285.jpg,images/pixabay_cat_001160.jpg,Jesse,001,2021-07-19_16h02.09.851,Cat face experiment_fully sample_901-1225,2021.1.4,Win32,60.08171113
,,,,,,p,0.6204,0,140,140,140,1,140,images/flickr_cat_000022.jpg,images/pixabay_cat_000883.jpg,Jesse,001,2021-07-19_16h02.09.851,Cat face experiment_fully sample_901-1225,2021.1.4,Win32,60.08171113
,,,,,,p,0.6253,0,141,141,141,1,141,images/pixabay_cat_003635.jpg,images/pixabay_cat_000883.jpg,Jesse,001,2021-07-19_16h02.09.851,Cat face experiment_fully sample_901-1225,2021.1.4,Win32,60.08171113
,,,,,,q,0.6967,0,142,142,142,1,142,images/flickr_cat_000022.jpg,images/flickr_cat_000206.jpg,Jesse,001,2021-07-19_16h02.09.851,Cat face experiment_fully sample_901-1225,2021.1.4,Win32,60.08171113
,,,,,,p,0.7002,0,143,143,143,1,143,images/pixabay_cat_001102.jpg,images/flickr_cat_000022.jpg,Jesse,001,2021-07-19_16h02.09.851,Cat face experiment_fully sample_901-1225,2021.1.4,Win32,60.08171113
,,,,,,q,0.8016,0,144,144,144,1,144,images/pixabay_cat_003228.jpg,images/pixabay_cat_000286.jpg,Jesse,001,2021-07-19_16h02.09.851,Cat face experiment_fully sample_901-1225,2021.1.4,Win32,60.08171113
,,,,,,q,0.7715,0,145,145,145,1,145,images/pixabay_cat_000411.jpg,images/pixabay_cat_002300.jpg,Jesse,001,2021-07-19_16h02.09.851,Cat face experiment_fully sample_901-1225,2021.1.4,Win32,60.08171113
,,,,,,q,0.9371,0,146,146,146,1,146,images/pixabay_cat_002690.jpg,images/flickr_cat_000271.jpg,Jesse,001,2021-07-19_16h02.09.851,Cat face experiment_fully sample_901-1225,2021.1.4,Win32,60.08171113
,,,,,,q,0.7067,0,147,147,147,1,147,images/pixabay_cat_000120.jpg,images/pixabay_cat_004049.jpg,Jesse,001,2021-07-19_16h02.09.851,Cat face experiment_fully sample_901-1225,2021.1.4,Win32,60.08171113
,,,,,,p,0.8088,0,148,148,148,1,148,images/flickr_cat_000022.jpg,images/pixabay_cat_001265.jpg,Jesse,001,2021-07-19_16h02.09.851,Cat face experiment_fully sample_901-1225,2021.1.4,Win32,60.08171113
,,,,,,p,0.7129,0,149,149,149,1,149,images/pixabay_cat_000411.jpg,images/pixabay_cat_004148.jpg,Jesse,001,2021-07-19_16h02.09.851,Cat face experiment_fully sample_901-1225,2021.1.4,Win32,60.08171113
,,,,,,q,1.0278,0,150,150,150,1,150,images/pixabay_cat_001160.jpg,images/pixabay_cat_002300.jpg,Jesse,001,2021-07-19_16h02.09.851,Cat face experiment_fully sample_901-1225,2021.1.4,Win32,60.08171113
,,,,,,p,0.7313,0,151,151,151,1,151,images/pixabay_cat_001160.jpg,images/pixabay_cat_000883.jpg,Jesse,001,2021-07-19_16h02.09.851,Cat face experiment_fully sample_901-1225,2021.1.4,Win32,60.08171113
,,,,,,q,0.7339,0,152,152,152,1,152,images/pixabay_cat_003077.jpg,images/pixabay_cat_004049.jpg,Jesse,001,2021-07-19_16h02.09.851,Cat face experiment_fully sample_901-1225,2021.1.4,Win32,60.08171113
,,,,,,q,1.0168,0,153,153,153,1,153,images/pixabay_cat_004489.jpg,images/pixabay_cat_001160.jpg,Jesse,001,2021-07-19_16h02.09.851,Cat face experiment_fully sample_901-1225,2021.1.4,Win32,60.08171113
,,,,,,p,1.1116,0,154,154,154,1,154,images/pixabay_cat_000260.jpg,images/pixabay_cat_002614.jpg,Jesse,001,2021-07-19_16h02.09.851,Cat face experiment_fully sample_901-1225,2021.1.4,Win32,60.08171113
,,,,,,q,0.8782,0,155,155,155,1,155,images/pixabay_cat_002614.jpg,images/flickr_cat_000200.jpg,Jesse,001,2021-07-19_16h02.09.851,Cat face experiment_fully sample_901-1225,2021.1.4,Win32,60.08171113
,,,,,,p,0.7978,0,156,156,156,1,156,images/pixabay_cat_002601.jpg,images/pixabay_cat_001805.jpg,Jesse,001,2021-07-19_16h02.09.851,Cat face experiment_fully sample_901-1225,2021.1.4,Win32,60.08171113
,,,,,,q,0.8001,0,157,157,157,1,157,images/flickr_cat_000285.jpg,images/pixabay_cat_004148.jpg,Jesse,001,2021-07-19_16h02.09.851,Cat face experiment_fully sample_901-1225,2021.1.4,Win32,60.08171113
,,,,,,q,0.6863,0,158,158,158,1,158,images/pixabay_cat_001102.jpg,images/pixabay_cat_004049.jpg,Jesse,001,2021-07-19_16h02.09.851,Cat face experiment_fully sample_901-1225,2021.1.4,Win32,60.08171113
,,,,,,q,0.7335,0,159,159,159,1,159,images/pixabay_cat_000260.jpg,images/pixabay_cat_003186.jpg,Jesse,001,2021-07-19_16h02.09.851,Cat face experiment_fully sample_901-1225,2021.1.4,Win32,60.08171113
,,,,,,q,0.8579,0,160,160,160,1,160,images/pixabay_cat_003186.jpg,images/flickr_cat_000271.jpg,Jesse,001,2021-07-19_16h02.09.851,Cat face experiment_fully sample_901-1225,2021.1.4,Win32,60.08171113
,,,,,,p,0.8089,0,161,161,161,1,161,images/pixabay_cat_001102.jpg,images/pixabay_cat_004641.jpg,Jesse,001,2021-07-19_16h02.09.851,Cat face experiment_fully sample_901-1225,2021.1.4,Win32,60.08171113
,,,,,,p,0.9252,0,162,162,162,1,162,images/pixabay_cat_001265.jpg,images/pixabay_cat_003121.jpg,Jesse,001,2021-07-19_16h02.09.851,Cat face experiment_fully sample_901-1225,2021.1.4,Win32,60.08171113
,,,,,,p,0.9412,0,163,163,163,1,163,images/pixabay_cat_004292.jpg,images/pixabay_cat_001160.jpg,Jesse,001,2021-07-19_16h02.09.851,Cat face experiment_fully sample_901-1225,2021.1.4,Win32,60.08171113
,,,,,,q,1.5003,0,164,164,164,1,164,images/pixabay_cat_002979.jpg,images/pixabay_cat_002300.jpg,Jesse,001,2021-07-19_16h02.09.851,Cat face experiment_fully sample_901-1225,2021.1.4,Win32,60.08171113
,,,,,,p,0.784,0,165,165,165,1,165,images/pixabay_cat_003425.jpg,images/pixabay_cat_001304.jpg,Jesse,001,2021-07-19_16h02.09.851,Cat face experiment_fully sample_901-1225,2021.1.4,Win32,60.08171113
,,,,,,q,0.9499,0,166,166,166,1,166,images/flickr_cat_000240.jpg,images/pixabay_cat_002930.jpg,Jesse,001,2021-07-19_16h02.09.851,Cat face experiment_fully sample_901-1225,2021.1.4,Win32,60.08171113
,,,,,,p,1.3416,0,167,167,167,1,167,images/pixabay_cat_000043.jpg,images/pixabay_cat_003566.jpg,Jesse,001,2021-07-19_16h02.09.851,Cat face experiment_fully sample_901-1225,2021.1.4,Win32,60.08171113
,,,,,,p,0.9567,0,168,168,168,1,168,images/pixabay_cat_004292.jpg,images/pixabay_cat_002979.jpg,Jesse,001,2021-07-19_16h02.09.851,Cat face experiment_fully sample_901-1225,2021.1.4,Win32,60.08171113
,,,,,,p,0.7426,0,169,169,169,1,169,images/pixabay_cat_000411.jpg,images/pixabay_cat_001597.jpg,Jesse,001,2021-07-19_16h02.09.851,Cat face experiment_fully sample_901-1225,2021.1.4,Win32,60.08171113
,,,,,,p,0.7625,0,170,170,170,1,170,images/pixabay_cat_003635.jpg,images/pixabay_cat_002300.jpg,Jesse,001,2021-07-19_16h02.09.851,Cat face experiment_fully sample_901-1225,2021.1.4,Win32,60.08171113
,,,,,,q,1.0266,0,171,171,171,1,171,images/pixabay_cat_003566.jpg,images/pixabay_cat_002930.jpg,Jesse,001,2021-07-19_16h02.09.851,Cat face experiment_fully sample_901-1225,2021.1.4,Win32,60.08171113
,,,,,,q,0.6965,0,172,172,172,1,172,images/pixabay_cat_002045.jpg,images/pixabay_cat_002614.jpg,Jesse,001,2021-07-19_16h02.09.851,Cat face experiment_fully sample_901-1225,2021.1.4,Win32,60.08171113
,,,,,,q,0.7497,0,173,173,173,1,173,images/pixabay_cat_003425.jpg,images/pixabay_cat_000043.jpg,Jesse,001,2021-07-19_16h02.09.851,Cat face experiment_fully sample_901-1225,2021.1.4,Win32,60.08171113
,,,,,,p,0.8168,0,174,174,174,1,174,images/pixabay_cat_003077.jpg,images/pixabay_cat_002979.jpg,Jesse,001,2021-07-19_16h02.09.851,Cat face experiment_fully sample_901-1225,2021.1.4,Win32,60.08171113
,,,,,,p,0.7695,0,175,175,175,1,175,images/pixabay_cat_004641.jpg,images/pixabay_cat_000120.jpg,Jesse,001,2021-07-19_16h02.09.851,Cat face experiment_fully sample_901-1225,2021.1.4,Win32,60.08171113
,,,,,,q,0.7716,0,176,176,176,1,176,images/pixabay_cat_001502.jpg,images/flickr_cat_000022.jpg,Jesse,001,2021-07-19_16h02.09.851,Cat face experiment_fully sample_901-1225,2021.1.4,Win32,60.08171113
,,,,,,p,0.7577,0,177,177,177,1,177,images/pixabay_cat_004148.jpg,images/pixabay_cat_001805.jpg,Jesse,001,2021-07-19_16h02.09.851,Cat face experiment_fully sample_901-1225,2021.1.4,Win32,60.08171113
,,,,,,p,0.7108,0,178,178,178,1,178,images/pixabay_cat_003077.jpg,images/pixabay_cat_000883.jpg,Jesse,001,2021-07-19_16h02.09.851,Cat face experiment_fully sample_901-1225,2021.1.4,Win32,60.08171113
,,,,,,q,0.928,0,179,179,179,1,179,images/flickr_cat_000581.jpg,images/pixabay_cat_001502.jpg,Jesse,001,2021-07-19_16h02.09.851,Cat face experiment_fully sample_901-1225,2021.1.4,Win32,60.08171113
,,,,,,p,0.812,0,180,180,180,1,180,images/pixabay_cat_001102.jpg,images/pixabay_cat_001284.jpg,Jesse,001,2021-07-19_16h02.09.851,Cat face experiment_fully sample_901-1225,2021.1.4,Win32,60.08171113
,,,,,,p,0.7664,0,181,181,181,1,181,images/pixabay_cat_003635.jpg,images/pixabay_cat_002614.jpg,Jesse,001,2021-07-19_16h02.09.851,Cat face experiment_fully sample_901-1225,2021.1.4,Win32,60.08171113
,,,,,,p,1.0122,0,182,182,182,1,182,images/pixabay_cat_003077.jpg,images/flickr_cat_000271.jpg,Jesse,001,2021-07-19_16h02.09.851,Cat face experiment_fully sample_901-1225,2021.1.4,Win32,60.08171113
,,,,,,q,0.6996,0,183,183,183,1,183,images/flickr_cat_000581.jpg,images/pixabay_cat_004049.jpg,Jesse,001,2021-07-19_16h02.09.851,Cat face experiment_fully sample_901-1225,2021.1.4,Win32,60.08171113
,,,,,,q,0.8831,0,184,184,184,1,184,images/pixabay_cat_001206.jpg,images/pixabay_cat_002300.jpg,Jesse,001,2021-07-19_16h02.09.851,Cat face experiment_fully sample_901-1225,2021.1.4,Win32,60.08171113
,,,,,,q,0.8834,0,185,185,185,1,185,images/pixabay_cat_004641.jpg,images/flickr_cat_000200.jpg,Jesse,001,2021-07-19_16h02.09.851,Cat face experiment_fully sample_901-1225,2021.1.4,Win32,60.08171113
,,,,,,p,0.9,0,186,186,186,1,186,images/pixabay_cat_004489.jpg,images/pixabay_cat_001284.jpg,Jesse,001,2021-07-19_16h02.09.851,Cat face experiment_fully sample_901-1225,2021.1.4,Win32,60.08171113
,,,,,,p,0.834,0,187,187,187,1,187,images/pixabay_cat_004292.jpg,images/pixabay_cat_004641.jpg,Jesse,001,2021-07-19_16h02.09.851,Cat face experiment_fully sample_901-1225,2021.1.4,Win32,60.08171113
,,,,,,p,0.8674,0,188,188,188,1,188,images/pixabay_cat_003927.jpg,images/pixabay_cat_001206.jpg,Jesse,001,2021-07-19_16h02.09.851,Cat face experiment_fully sample_901-1225,2021.1.4,Win32,60.08171113
,,,,,,p,0.8015,0,189,189,189,1,189,images/pixabay_cat_000043.jpg,images/flickr_cat_000285.jpg,Jesse,001,2021-07-19_16h02.09.851,Cat face experiment_fully sample_901-1225,2021.1.4,Win32,60.08171113
,,,,,,q,0.7218,0,190,190,190,1,190,images/flickr_cat_000206.jpg,images/pixabay_cat_001862.jpg,Jesse,001,2021-07-19_16h02.09.851,Cat face experiment_fully sample_901-1225,2021.1.4,Win32,60.08171113
,,,,,,p,0.8072,0,191,191,191,1,191,images/flickr_cat_000271.jpg,images/pixabay_cat_003638.jpg,Jesse,001,2021-07-19_16h02.09.851,Cat face experiment_fully sample_901-1225,2021.1.4,Win32,60.08171113
,,,,,,q,0.6925,0,192,192,192,1,192,images/pixabay_cat_000043.jpg,images/pixabay_cat_003186.jpg,Jesse,001,2021-07-19_16h02.09.851,Cat face experiment_fully sample_901-1225,2021.1.4,Win32,60.08171113
,,,,,,p,0.7297,0,193,193,193,1,193,images/pixabay_cat_002045.jpg,images/pixabay_cat_000286.jpg,Jesse,001,2021-07-19_16h02.09.851,Cat face experiment_fully sample_901-1225,2021.1.4,Win32,60.08171113
,,,,,,p,0.833,0,194,194,194,1,194,images/pixabay_cat_002979.jpg,images/pixabay_cat_003927.jpg,Jesse,001,2021-07-19_16h02.09.851,Cat face experiment_fully sample_901-1225,2021.1.4,Win32,60.08171113
,,,,,,q,0.8331,0,195,195,195,1,195,images/flickr_cat_000206.jpg,images/pixabay_cat_001304.jpg,Jesse,001,2021-07-19_16h02.09.851,Cat face experiment_fully sample_901-1225,2021.1.4,Win32,60.08171113
,,,,,,q,0.8332,0,196,196,196,1,196,images/pixabay_cat_003425.jpg,images/pixabay_cat_003077.jpg,Jesse,001,2021-07-19_16h02.09.851,Cat face experiment_fully sample_901-1225,2021.1.4,Win32,60.08171113
,,,,,,p,0.7357,0,197,197,197,1,197,images/pixabay_cat_004292.jpg,images/flickr_cat_000240.jpg,Jesse,001,2021-07-19_16h02.09.851,Cat face experiment_fully sample_901-1225,2021.1.4,Win32,60.08171113
,,,,,,q,0.8367,0,198,198,198,1,198,images/pixabay_cat_003228.jpg,images/flickr_cat_000083.jpg,Jesse,001,2021-07-19_16h02.09.851,Cat face experiment_fully sample_901-1225,2021.1.4,Win32,60.08171113
,,,,,,q,0.7392,0,199,199,199,1,199,images/pixabay_cat_004489.jpg,images/pixabay_cat_002930.jpg,Jesse,001,2021-07-19_16h02.09.851,Cat face experiment_fully sample_901-1225,2021.1.4,Win32,60.08171113
,,,,,,p,0.7086,0,200,200,200,1,200,images/pixabay_cat_000411.jpg,images/pixabay_cat_001304.jpg,Jesse,001,2021-07-19_16h02.09.851,Cat face experiment_fully sample_901-1225,2021.1.4,Win32,60.08171113
,,,,,,q,0.8272,0,201,201,201,1,201,images/pixabay_cat_000043.jpg,images/flickr_cat_000083.jpg,Jesse,001,2021-07-19_16h02.09.851,Cat face experiment_fully sample_901-1225,2021.1.4,Win32,60.08171113
,,,,,,q,0.7129,0,202,202,202,1,202,images/pixabay_cat_000411.jpg,images/flickr_cat_000200.jpg,Jesse,001,2021-07-19_16h02.09.851,Cat face experiment_fully sample_901-1225,2021.1.4,Win32,60.08171113
,,,,,,q,0.9129,0,203,203,203,1,203,images/flickr_cat_000285.jpg,images/pixabay_cat_003121.jpg,Jesse,001,2021-07-19_16h02.09.851,Cat face experiment_fully sample_901-1225,2021.1.4,Win32,60.08171113
,,,,,,p,0.7831,0,204,204,204,1,204,images/pixabay_cat_001102.jpg,images/pixabay_cat_001206.jpg,Jesse,001,2021-07-19_16h02.09.851,Cat face experiment_fully sample_901-1225,2021.1.4,Win32,60.08171113
,,,,,,p,0.8665,0,205,205,205,1,205,images/pixabay_cat_002979.jpg,images/pixabay_cat_001178.jpg,Jesse,001,2021-07-19_16h02.09.851,Cat face experiment_fully sample_901-1225,2021.1.4,Win32,60.08171113
,,,,,,p,0.6684,0,206,206,206,1,206,images/pixabay_cat_003566.jpg,images/pixabay_cat_000883.jpg,Jesse,001,2021-07-19_16h02.09.851,Cat face experiment_fully sample_901-1225,2021.1.4,Win32,60.08171113
,,,,,,q,0.869,0,207,207,207,1,207,images/pixabay_cat_000260.jpg,images/pixabay_cat_001304.jpg,Jesse,001,2021-07-19_16h02.09.851,Cat face experiment_fully sample_901-1225,2021.1.4,Win32,60.08171113
,,,,,,p,0.7555,0,208,208,208,1,208,images/flickr_cat_000266.jpg,images/pixabay_cat_004489.jpg,Jesse,001,2021-07-19_16h02.09.851,Cat face experiment_fully sample_901-1225,2021.1.4,Win32,60.08171113
,,,,,,p,0.8232,0,209,209,209,1,209,images/pixabay_cat_002601.jpg,images/pixabay_cat_002979.jpg,Jesse,001,2021-07-19_16h02.09.851,Cat face experiment_fully sample_901-1225,2021.1.4,Win32,60.08171113
,,,,,,q,0.6779,0,210,210,210,1,210,images/pixabay_cat_002045.jpg,images/pixabay_cat_002300.jpg,Jesse,001,2021-07-19_16h02.09.851,Cat face experiment_fully sample_901-1225,2021.1.4,Win32,60.08171113
,,,,,,p,0.796,0,211,211,211,1,211,images/pixabay_cat_003186.jpg,images/flickr_cat_000206.jpg,Jesse,001,2021-07-19_16h02.09.851,Cat face experiment_fully sample_901-1225,2021.1.4,Win32,60.08171113
,,,,,,q,0.7496,0,212,212,212,1,212,images/pixabay_cat_004489.jpg,images/pixabay_cat_002045.jpg,Jesse,001,2021-07-19_16h02.09.851,Cat face experiment_fully sample_901-1225,2021.1.4,Win32,60.08171113
,,,,,,p,0.6525,0,213,213,213,1,213,images/pixabay_cat_004641.jpg,images/flickr_cat_000206.jpg,Jesse,001,2021-07-19_16h02.09.851,Cat face experiment_fully sample_901-1225,2021.1.4,Win32,60.08171113
,,,,,,q,0.9526,0,214,214,214,1,214,images/pixabay_cat_000411.jpg,images/pixabay_cat_000286.jpg,Jesse,001,2021-07-19_16h02.09.851,Cat face experiment_fully sample_901-1225,2021.1.4,Win32,60.08171113
,,,,,,q,0.9342,0,215,215,215,1,215,images/pixabay_cat_000260.jpg,images/pixabay_cat_001862.jpg,Jesse,001,2021-07-19_16h02.09.851,Cat face experiment_fully sample_901-1225,2021.1.4,Win32,60.08171113
,,,,,,p,0.7702,0,216,216,216,1,216,images/pixabay_cat_004049.jpg,images/pixabay_cat_001862.jpg,Jesse,001,2021-07-19_16h02.09.851,Cat face experiment_fully sample_901-1225,2021.1.4,Win32,60.08171113
,,,,,,q,0.7393,0,217,217,217,1,217,images/pixabay_cat_001160.jpg,images/flickr_cat_000271.jpg,Jesse,001,2021-07-19_16h02.09.851,Cat face experiment_fully sample_901-1225,2021.1.4,Win32,60.08171113
,,,,,,p,0.8897,0,218,218,218,1,218,images/pixabay_cat_004641.jpg,images/pixabay_cat_004182.jpg,Jesse,001,2021-07-19_16h02.09.851,Cat face experiment_fully sample_901-1225,2021.1.4,Win32,60.08171113
,,,,,,q,0.8082,0,219,219,219,1,219,images/flickr_cat_000240.jpg,images/pixabay_cat_003927.jpg,Jesse,001,2021-07-19_16h02.09.851,Cat face experiment_fully sample_901-1225,2021.1.4,Win32,60.08171113
,,,,,,p,0.7775,0,220,220,220,1,220,images/pixabay_cat_003077.jpg,images/flickr_cat_000285.jpg,Jesse,001,2021-07-19_16h02.09.851,Cat face experiment_fully sample_901-1225,2021.1.4,Win32,60.08171113
,,,,,,p,0.6976,0,221,221,221,1,221,images/flickr_cat_000266.jpg,images/pixabay_cat_000286.jpg,Jesse,001,2021-07-19_16h02.09.851,Cat face experiment_fully sample_901-1225,2021.1.4,Win32,60.08171113
,,,,,,p,0.8165,0,222,222,222,1,222,images/pixabay_cat_003425.jpg,images/pixabay_cat_002979.jpg,Jesse,001,2021-07-19_16h02.09.851,Cat face experiment_fully sample_901-1225,2021.1.4,Win32,60.08171113
,,,,,,p,0.769,0,223,223,223,1,223,images/pixabay_cat_003927.jpg,images/pixabay_cat_003312.jpg,Jesse,001,2021-07-19_16h02.09.851,Cat face experiment_fully sample_901-1225,2021.1.4,Win32,60.08171113
,,,,,,q,0.8541,0,224,224,224,1,224,images/pixabay_cat_004148.jpg,images/pixabay_cat_002930.jpg,Jesse,001,2021-07-19_16h02.09.851,Cat face experiment_fully sample_901-1225,2021.1.4,Win32,60.08171113
,,,,,,p,0.74,0,225,225,225,1,225,images/pixabay_cat_003425.jpg,images/flickr_cat_000266.jpg,Jesse,001,2021-07-19_16h02.09.851,Cat face experiment_fully sample_901-1225,2021.1.4,Win32,60.08171113
,,,,,,q,0.8245,0,226,226,226,1,226,images/pixabay_cat_003425.jpg,images/pixabay_cat_002614.jpg,Jesse,001,2021-07-19_16h02.09.851,Cat face experiment_fully sample_901-1225,2021.1.4,Win32,60.08171113
,,,,,,q,0.7446,0,227,227,227,1,227,images/flickr_cat_000581.jpg,images/pixabay_cat_001862.jpg,Jesse,001,2021-07-19_16h02.09.851,Cat face experiment_fully sample_901-1225,2021.1.4,Win32,60.08171113
,,,,,,p,0.7803,0,228,228,228,1,228,images/pixabay_cat_002690.jpg,images/pixabay_cat_000286.jpg,Jesse,001,2021-07-19_16h02.09.851,Cat face experiment_fully sample_901-1225,2021.1.4,Win32,60.08171113
,,,,,,q,1.0278,0,229,229,229,1,229,images/pixabay_cat_003186.jpg,images/pixabay_cat_004049.jpg,Jesse,001,2021-07-19_16h02.09.851,Cat face experiment_fully sample_901-1225,2021.1.4,Win32,60.08171113
,,,,,,p,0.78,0,230,230,230,1,230,images/pixabay_cat_002601.jpg,images/flickr_cat_000285.jpg,Jesse,001,2021-07-19_16h02.09.851,Cat face experiment_fully sample_901-1225,2021.1.4,Win32,60.08171113
,,,,,,p,0.7996,0,231,231,231,1,231,images/pixabay_cat_000260.jpg,images/pixabay_cat_001284.jpg,Jesse,001,2021-07-19_16h02.09.851,Cat face experiment_fully sample_901-1225,2021.1.4,Win32,60.08171113
,,,,,,q,0.5867,0,232,232,232,1,232,images/flickr_cat_000266.jpg,images/pixabay_cat_003312.jpg,Jesse,001,2021-07-19_16h02.09.851,Cat face experiment_fully sample_901-1225,2021.1.4,Win32,60.08171113
,,,,,,p,0.6898,0,233,233,233,1,233,images/pixabay_cat_003566.jpg,images/pixabay_cat_001284.jpg,Jesse,001,2021-07-19_16h02.09.851,Cat face experiment_fully sample_901-1225,2021.1.4,Win32,60.08171113
,,,,,,q,0.9502,0,234,234,234,1,234,images/pixabay_cat_002690.jpg,images/pixabay_cat_002979.jpg,Jesse,001,2021-07-19_16h02.09.851,Cat face experiment_fully sample_901-1225,2021.1.4,Win32,60.08171113
,,,,,,p,0.6937,0,235,235,235,1,235,images/pixabay_cat_000411.jpg,images/pixabay_cat_002979.jpg,Jesse,001,2021-07-19_16h02.09.851,Cat face experiment_fully sample_901-1225,2021.1.4,Win32,60.08171113
,,,,,,q,0.7786,0,236,236,236,1,236,images/flickr_cat_000240.jpg,images/pixabay_cat_002614.jpg,Jesse,001,2021-07-19_16h02.09.851,Cat face experiment_fully sample_901-1225,2021.1.4,Win32,60.08171113
,,,,,,p,0.8138,0,237,237,237,1,237,images/pixabay_cat_000411.jpg,images/pixabay_cat_003638.jpg,Jesse,001,2021-07-19_16h02.09.851,Cat face experiment_fully sample_901-1225,2021.1.4,Win32,60.08171113
,,,,,,q,0.7508,0,238,238,238,1,238,images/pixabay_cat_001502.jpg,images/pixabay_cat_002979.jpg,Jesse,001,2021-07-19_16h02.09.851,Cat face experiment_fully sample_901-1225,2021.1.4,Win32,60.08171113
,,,,,,p,0.6548,0,239,239,239,1,239,images/pixabay_cat_001502.jpg,images/pixabay_cat_000260.jpg,Jesse,001,2021-07-19_16h02.09.851,Cat face experiment_fully sample_901-1225,2021.1.4,Win32,60.08171113
,,,,,,q,0.7728,0,240,240,240,1,240,images/pixabay_cat_004292.jpg,images/pixabay_cat_001265.jpg,Jesse,001,2021-07-19_16h02.09.851,Cat face experiment_fully sample_901-1225,2021.1.4,Win32,60.08171113
,,,,,,q,0.7421,0,241,241,241,1,241,images/flickr_cat_000266.jpg,images/pixabay_cat_002690.jpg,Jesse,001,2021-07-19_16h02.09.851,Cat face experiment_fully sample_901-1225,2021.1.4,Win32,60.08171113
,,,,,,p,0.696,0,242,242,242,1,242,images/pixabay_cat_003638.jpg,images/pixabay_cat_002930.jpg,Jesse,001,2021-07-19_16h02.09.851,Cat face experiment_fully sample_901-1225,2021.1.4,Win32,60.08171113
,,,,,,p,0.733,0,243,243,243,1,243,images/pixabay_cat_001502.jpg,images/pixabay_cat_000883.jpg,Jesse,001,2021-07-19_16h02.09.851,Cat face experiment_fully sample_901-1225,2021.1.4,Win32,60.08171113
,,,,,,p,0.6853,0,244,244,244,1,244,images/pixabay_cat_002601.jpg,images/pixabay_cat_004641.jpg,Jesse,001,2021-07-19_16h02.09.851,Cat face experiment_fully sample_901-1225,2021.1.4,Win32,60.08171113
,,,,,,p,0.7869,0,245,245,245,1,245,images/pixabay_cat_003638.jpg,images/flickr_cat_000200.jpg,Jesse,001,2021-07-19_16h02.09.851,Cat face experiment_fully sample_901-1225,2021.1.4,Win32,60.08171113
,,,,,,q,0.7875,0,246,246,246,1,246,images/pixabay_cat_003425.jpg,images/pixabay_cat_001862.jpg,Jesse,001,2021-07-19_16h02.09.851,Cat face experiment_fully sample_901-1225,2021.1.4,Win32,60.08171113
,,,,,,q,1.0681,0,247,247,247,1,247,images/pixabay_cat_000043.jpg,images/pixabay_cat_004148.jpg,Jesse,001,2021-07-19_16h02.09.851,Cat face experiment_fully sample_901-1225,2021.1.4,Win32,60.08171113
,,,,,,p,0.9168,0,248,248,248,1,248,images/pixabay_cat_004292.jpg,images/pixabay_cat_000043.jpg,Jesse,001,2021-07-19_16h02.09.851,Cat face experiment_fully sample_901-1225,2021.1.4,Win32,60.08171113
,,,,,,q,0.8835,0,249,249,249,1,249,images/flickr_cat_000240.jpg,images/pixabay_cat_001284.jpg,Jesse,001,2021-07-19_16h02.09.851,Cat face experiment_fully sample_901-1225,2021.1.4,Win32,60.08171113
,,,,,,q,0.8499,0,250,250,250,1,250,images/flickr_cat_000022.jpg,images/flickr_cat_000271.jpg,Jesse,001,2021-07-19_16h02.09.851,Cat face experiment_fully sample_901-1225,2021.1.4,Win32,60.08171113
,,,,,,p,0.8831,0,251,251,251,1,251,images/pixabay_cat_003121.jpg,images/pixabay_cat_004148.jpg,Jesse,001,2021-07-19_16h02.09.851,Cat face experiment_fully sample_901-1225,2021.1.4,Win32,60.08171113
,,,,,,p,0.7997,0,252,252,252,1,252,images/pixabay_cat_001206.jpg,images/pixabay_cat_000883.jpg,Jesse,001,2021-07-19_16h02.09.851,Cat face experiment_fully sample_901-1225,2021.1.4,Win32,60.08171113
,,,,,,p,0.7683,0,253,253,253,1,253,images/pixabay_cat_000411.jpg,images/pixabay_cat_000260.jpg,Jesse,001,2021-07-19_16h02.09.851,Cat face experiment_fully sample_901-1225,2021.1.4,Win32,60.08171113
,,,,,,q,0.8685,0,254,254,254,1,254,images/pixabay_cat_003186.jpg,images/pixabay_cat_001160.jpg,Jesse,001,2021-07-19_16h02.09.851,Cat face experiment_fully sample_901-1225,2021.1.4,Win32,60.08171113
,,,,,,p,0.8024,0,255,255,255,1,255,images/flickr_cat_000200.jpg,images/pixabay_cat_001862.jpg,Jesse,001,2021-07-19_16h02.09.851,Cat face experiment_fully sample_901-1225,2021.1.4,Win32,60.08171113
,,,,,,p,0.854,0,256,256,256,1,256,images/pixabay_cat_001597.jpg,images/pixabay_cat_004489.jpg,Jesse,001,2021-07-19_16h02.09.851,Cat face experiment_fully sample_901-1225,2021.1.4,Win32,60.08171113
,,,,,,p,0.673,0,257,257,257,1,257,images/flickr_cat_000083.jpg,images/pixabay_cat_000286.jpg,Jesse,001,2021-07-19_16h02.09.851,Cat face experiment_fully sample_901-1225,2021.1.4,Win32,60.08171113
,,,,,,q,0.6288,0,258,258,258,1,258,images/pixabay_cat_000120.jpg,images/pixabay_cat_000286.jpg,Jesse,001,2021-07-19_16h02.09.851,Cat face experiment_fully sample_901-1225,2021.1.4,Win32,60.08171113
,,,,,,p,0.6664,0,259,259,259,1,259,images/pixabay_cat_001160.jpg,images/pixabay_cat_001862.jpg,Jesse,001,2021-07-19_16h02.09.851,Cat face experiment_fully sample_901-1225,2021.1.4,Win32,60.08171113
,,,,,,q,0.7005,0,260,260,260,1,260,images/pixabay_cat_001102.jpg,images/pixabay_cat_003077.jpg,Jesse,001,2021-07-19_16h02.09.851,Cat face experiment_fully sample_901-1225,2021.1.4,Win32,60.08171113
,,,,,,p,0.7524,0,261,261,261,1,261,images/pixabay_cat_004148.jpg,images/pixabay_cat_002300.jpg,Jesse,001,2021-07-19_16h02.09.851,Cat face experiment_fully sample_901-1225,2021.1.4,Win32,60.08171113
,,,,,,q,0.7716,0,262,262,262,1,262,images/pixabay_cat_001597.jpg,images/pixabay_cat_004148.jpg,Jesse,001,2021-07-19_16h02.09.851,Cat face experiment_fully sample_901-1225,2021.1.4,Win32,60.08171113
,,,,,,q,0.8219,0,263,263,263,1,263,images/flickr_cat_000083.jpg,images/pixabay_cat_003312.jpg,Jesse,001,2021-07-19_16h02.09.851,Cat face experiment_fully sample_901-1225,2021.1.4,Win32,60.08171113
,,,,,,q,0.9371,0,264,264,264,1,264,images/flickr_cat_000581.jpg,images/pixabay_cat_004489.jpg,Jesse,001,2021-07-19_16h02.09.851,Cat face experiment_fully sample_901-1225,2021.1.4,Win32,60.08171113
,,,,,,q,0.7554,0,265,265,265,1,265,images/pixabay_cat_002045.jpg,images/pixabay_cat_001862.jpg,Jesse,001,2021-07-19_16h02.09.851,Cat face experiment_fully sample_901-1225,2021.1.4,Win32,60.08171113
,,,,,,q,1.0692,0,266,266,266,1,266,images/pixabay_cat_001102.jpg,images/flickr_cat_000240.jpg,Jesse,001,2021-07-19_16h02.09.851,Cat face experiment_fully sample_901-1225,2021.1.4,Win32,60.08171113
,,,,,,q,1,0,267,267,267,1,267,images/pixabay_cat_001304.jpg,images/pixabay_cat_001178.jpg,Jesse,001,2021-07-19_16h02.09.851,Cat face experiment_fully sample_901-1225,2021.1.4,Win32,60.08171113
,,,,,,q,0.6867,0,268,268,268,1,268,images/flickr_cat_000271.jpg,images/pixabay_cat_001178.jpg,Jesse,001,2021-07-19_16h02.09.851,Cat face experiment_fully sample_901-1225,2021.1.4,Win32,60.08171113
,,,,,,p,0.6895,0,269,269,269,1,269,images/pixabay_cat_003635.jpg,images/pixabay_cat_003638.jpg,Jesse,001,2021-07-19_16h02.09.851,Cat face experiment_fully sample_901-1225,2021.1.4,Win32,60.08171113
,,,,,,p,0.7747,0,270,270,270,1,270,images/pixabay_cat_002979.jpg,images/pixabay_cat_004182.jpg,Jesse,001,2021-07-19_16h02.09.851,Cat face experiment_fully sample_901-1225,2021.1.4,Win32,60.08171113
,,,,,,q,0.6783,0,271,271,271,1,271,images/pixabay_cat_001265.jpg,images/pixabay_cat_004182.jpg,Jesse,001,2021-07-19_16h02.09.851,Cat face experiment_fully sample_901-1225,2021.1.4,Win32,60.08171113
,,,,,,q,0.9927,0,272,272,272,1,272,images/pixabay_cat_000411.jpg,images/flickr_cat_000266.jpg,Jesse,001,2021-07-19_16h02.09.851,Cat face experiment_fully sample_901-1225,2021.1.4,Win32,60.08171113
,,,,,,p,0.8595,0,273,273,273,1,273,images/pixabay_cat_001178.jpg,images/pixabay_cat_001805.jpg,Jesse,001,2021-07-19_16h02.09.851,Cat face experiment_fully sample_901-1225,2021.1.4,Win32,60.08171113
,,,,,,q,0.9254,0,274,274,274,1,274,images/flickr_cat_000266.jpg,images/pixabay_cat_001805.jpg,Jesse,001,2021-07-19_16h02.09.851,Cat face experiment_fully sample_901-1225,2021.1.4,Win32,60.08171113
,,,,,,p,0.891,0,275,275,275,1,275,images/flickr_cat_000240.jpg,images/pixabay_cat_003312.jpg,Jesse,001,2021-07-19_16h02.09.851,Cat face experiment_fully sample_901-1225,2021.1.4,Win32,60.08171113
,,,,,,p,0.8747,0,276,276,276,1,276,images/pixabay_cat_003186.jpg,images/pixabay_cat_002930.jpg,Jesse,001,2021-07-19_16h02.09.851,Cat face experiment_fully sample_901-1225,2021.1.4,Win32,60.08171113
,,,,,,p,0.6939,0,277,277,277,1,277,images/pixabay_cat_003186.jpg,images/flickr_cat_000240.jpg,Jesse,001,2021-07-19_16h02.09.851,Cat face experiment_fully sample_901-1225,2021.1.4,Win32,60.08171113
,,,,,,p,0.7793,0,278,278,278,1,278,images/pixabay_cat_002979.jpg,images/pixabay_cat_001862.jpg,Jesse,001,2021-07-19_16h02.09.851,Cat face experiment_fully sample_901-1225,2021.1.4,Win32,60.08171113
,,,,,,q,0.841,0,279,279,279,1,279,images/pixabay_cat_000120.jpg,images/flickr_cat_000271.jpg,Jesse,001,2021-07-19_16h02.09.851,Cat face experiment_fully sample_901-1225,2021.1.4,Win32,60.08171113
,,,,,,p,0.8576,0,280,280,280,1,280,images/pixabay_cat_000043.jpg,images/pixabay_cat_003312.jpg,Jesse,001,2021-07-19_16h02.09.851,Cat face experiment_fully sample_901-1225,2021.1.4,Win32,60.08171113
,,,,,,q,1.0335,0,281,281,281,1,281,images/pixabay_cat_003638.jpg,images/pixabay_cat_002300.jpg,Jesse,001,2021-07-19_16h02.09.851,Cat face experiment_fully sample_901-1225,2021.1.4,Win32,60.08171113
,,,,,,p,0.7724,0,282,282,282,1,282,images/pixabay_cat_003121.jpg,images/pixabay_cat_003638.jpg,Jesse,001,2021-07-19_16h02.09.851,Cat face experiment_fully sample_901-1225,2021.1.4,Win32,60.08171113
,,,,,,p,1.0696,0,283,283,283,1,283,images/pixabay_cat_001102.jpg,images/pixabay_cat_002690.jpg,Jesse,001,2021-07-19_16h02.09.851,Cat face experiment_fully sample_901-1225,2021.1.4,Win32,60.08171113
,,,,,,q,0.9836,0,284,284,284,1,284,images/pixabay_cat_000411.jpg,images/pixabay_cat_004049.jpg,Jesse,001,2021-07-19_16h02.09.851,Cat face experiment_fully sample_901-1225,2021.1.4,Win32,60.08171113
,,,,,,q,0.752,0,285,285,285,1,285,images/pixabay_cat_000043.jpg,images/pixabay_cat_002979.jpg,Jesse,001,2021-07-19_16h02.09.851,Cat face experiment_fully sample_901-1225,2021.1.4,Win32,60.08171113
,,,,,,p,0.868,0,286,286,286,1,286,images/pixabay_cat_001160.jpg,images/flickr_cat_000200.jpg,Jesse,001,2021-07-19_16h02.09.851,Cat face experiment_fully sample_901-1225,2021.1.4,Win32,60.08171113
,,,,,,q,1.0167,0,287,287,287,1,287,images/pixabay_cat_003425.jpg,images/flickr_cat_000271.jpg,Jesse,001,2021-07-19_16h02.09.851,Cat face experiment_fully sample_901-1225,2021.1.4,Win32,60.08171113
,,,,,,p,0.7191,0,288,288,288,1,288,images/pixabay_cat_003425.jpg,images/pixabay_cat_003121.jpg,Jesse,001,2021-07-19_16h02.09.851,Cat face experiment_fully sample_901-1225,2021.1.4,Win32,60.08171113
,,,,,,q,0.8859,0,289,289,289,1,289,images/pixabay_cat_004489.jpg,images/pixabay_cat_001304.jpg,Jesse,001,2021-07-19_16h02.09.851,Cat face experiment_fully sample_901-1225,2021.1.4,Win32,60.08171113
,,,,,,p,0.9012,0,290,290,290,1,290,images/pixabay_cat_001178.jpg,images/pixabay_cat_004182.jpg,Jesse,001,2021-07-19_16h02.09.851,Cat face experiment_fully sample_901-1225,2021.1.4,Win32,60.08171113
,,,,,,q,0.7533,0,291,291,291,1,291,images/pixabay_cat_004641.jpg,images/pixabay_cat_003186.jpg,Jesse,001,2021-07-19_16h02.09.851,Cat face experiment_fully sample_901-1225,2021.1.4,Win32,60.08171113
,,,,,,p,0.8381,0,292,292,292,1,292,images/pixabay_cat_004292.jpg,images/pixabay_cat_001805.jpg,Jesse,001,2021-07-19_16h02.09.851,Cat face experiment_fully sample_901-1225,2021.1.4,Win32,60.08171113
,,,,,,p,0.8708,0,293,293,293,1,293,images/pixabay_cat_004049.jpg,images/pixabay_cat_001284.jpg,Jesse,001,2021-07-19_16h02.09.851,Cat face experiment_fully sample_901-1225,2021.1.4,Win32,60.08171113
,,,,,,q,0.9035,0,294,294,294,1,294,images/pixabay_cat_004292.jpg,images/pixabay_cat_002690.jpg,Jesse,001,2021-07-19_16h02.09.851,Cat face experiment_fully sample_901-1225,2021.1.4,Win32,60.08171113
,,,,,,q,0.7889,0,295,295,295,1,295,images/pixabay_cat_002614.jpg,images/pixabay_cat_001304.jpg,Jesse,001,2021-07-19_16h02.09.851,Cat face experiment_fully sample_901-1225,2021.1.4,Win32,60.08171113
,,,,,,p,0.8395,0,296,296,296,1,296,images/pixabay_cat_001597.jpg,images/pixabay_cat_001862.jpg,Jesse,001,2021-07-19_16h02.09.851,Cat face experiment_fully sample_901-1225,2021.1.4,Win32,60.08171113
,,,,,,q,0.9381,0,297,297,297,1,297,images/pixabay_cat_002930.jpg,images/pixabay_cat_000286.jpg,Jesse,001,2021-07-19_16h02.09.851,Cat face experiment_fully sample_901-1225,2021.1.4,Win32,60.08171113
,,,,,,p,1.0352,0,298,298,298,1,298,images/flickr_cat_000271.jpg,images/pixabay_cat_002930.jpg,Jesse,001,2021-07-19_16h02.09.851,Cat face experiment_fully sample_901-1225,2021.1.4,Win32,60.08171113
,,,,,,p,1.0336,0,299,299,299,1,299,images/pixabay_cat_003425.jpg,images/pixabay_cat_000120.jpg,Jesse,001,2021-07-19_16h02.09.851,Cat face experiment_fully sample_901-1225,2021.1.4,Win32,60.08171113
,,,,,,q,1.3402,0,300,300,300,1,300,images/pixabay_cat_000260.jpg,images/pixabay_cat_004148.jpg,Jesse,001,2021-07-19_16h02.09.851,Cat face experiment_fully sample_901-1225,2021.1.4,Win32,60.08171113
,,,,,,p,1.5113,0,301,301,301,1,301,images/pixabay_cat_002979.jpg,images/pixabay_cat_001304.jpg,Jesse,001,2021-07-19_16h02.09.851,Cat face experiment_fully sample_901-1225,2021.1.4,Win32,60.08171113
,,,,,,q,1.7126,0,302,302,302,1,302,images/flickr_cat_000285.jpg,images/pixabay_cat_001862.jpg,Jesse,001,2021-07-19_16h02.09.851,Cat face experiment_fully sample_901-1225,2021.1.4,Win32,60.08171113
,,,,,,q,0.7799,0,303,303,303,1,303,images/pixabay_cat_001502.jpg,images/pixabay_cat_001304.jpg,Jesse,001,2021-07-19_16h02.09.851,Cat face experiment_fully sample_901-1225,2021.1.4,Win32,60.08171113
,,,,,,p,0.6847,0,304,304,304,1,304,images/pixabay_cat_001265.jpg,images/flickr_cat_000083.jpg,Jesse,001,2021-07-19_16h02.09.851,Cat face experiment_fully sample_901-1225,2021.1.4,Win32,60.08171113
,,,,,,q,0.7203,0,305,305,305,1,305,images/pixabay_cat_003638.jpg,images/pixabay_cat_001284.jpg,Jesse,001,2021-07-19_16h02.09.851,Cat face experiment_fully sample_901-1225,2021.1.4,Win32,60.08171113
,,,,,,p,0.7554,0,306,306,306,1,306,images/pixabay_cat_001597.jpg,images/pixabay_cat_003312.jpg,Jesse,001,2021-07-19_16h02.09.851,Cat face experiment_fully sample_901-1225,2021.1.4,Win32,60.08171113
,,,,,,q,0.8394,0,307,307,307,1,307,images/pixabay_cat_003425.jpg,images/pixabay_cat_001178.jpg,Jesse,001,2021-07-19_16h02.09.851,Cat face experiment_fully sample_901-1225,2021.1.4,Win32,60.08171113
,,,,,,p,0.7577,0,308,308,308,1,308,images/pixabay_cat_002045.jpg,images/flickr_cat_000206.jpg,Jesse,001,2021-07-19_16h02.09.851,Cat face experiment_fully sample_901-1225,2021.1.4,Win32,60.08171113
,,,,,,q,0.777,0,309,309,309,1,309,images/pixabay_cat_000120.jpg,images/pixabay_cat_002979.jpg,Jesse,001,2021-07-19_16h02.09.851,Cat face experiment_fully sample_901-1225,2021.1.4,Win32,60.08171113
,,,,,,q,1.0903,0,310,310,310,1,310,images/pixabay_cat_003566.jpg,images/flickr_cat_000240.jpg,Jesse,001,2021-07-19_16h02.09.851,Cat face experiment_fully sample_901-1225,2021.1.4,Win32,60.08171113
,,,,,,q,0.8244,0,311,311,311,1,311,images/flickr_cat_000083.jpg,images/pixabay_cat_001284.jpg,Jesse,001,2021-07-19_16h02.09.851,Cat face experiment_fully sample_901-1225,2021.1.4,Win32,60.08171113
,,,,,,p,0.7771,0,312,312,312,1,312,images/pixabay_cat_004292.jpg,images/flickr_cat_000285.jpg,Jesse,001,2021-07-19_16h02.09.851,Cat face experiment_fully sample_901-1225,2021.1.4,Win32,60.08171113
,,,,,,q,0.8111,0,313,313,313,1,313,images/flickr_cat_000200.jpg,images/pixabay_cat_000100.jpg,Jesse,001,2021-07-19_16h02.09.851,Cat face experiment_fully sample_901-1225,2021.1.4,Win32,60.08171113
,,,,,,q,0.8609,0,314,314,314,1,314,images/pixabay_cat_004489.jpg,images/pixabay_cat_004148.jpg,Jesse,001,2021-07-19_16h02.09.851,Cat face experiment_fully sample_901-1225,2021.1.4,Win32,60.08171113
,,,,,,p,0.8938,0,315,315,315,1,315,images/pixabay_cat_001160.jpg,images/pixabay_cat_000286.jpg,Jesse,001,2021-07-19_16h02.09.851,Cat face experiment_fully sample_901-1225,2021.1.4,Win32,60.08171113
,,,,,,p,0.6647,0,316,316,316,1,316,images/pixabay_cat_001160.jpg,images/pixabay_cat_001304.jpg,Jesse,001,2021-07-19_16h02.09.851,Cat face experiment_fully sample_901-1225,2021.1.4,Win32,60.08171113
,,,,,,p,1.2745,0,317,317,317,1,317,images/pixabay_cat_001805.jpg,images/pixabay_cat_000286.jpg,Jesse,001,2021-07-19_16h02.09.851,Cat face experiment_fully sample_901-1225,2021.1.4,Win32,60.08171113
,,,,,,p,0.8905,0,318,318,318,1,318,images/pixabay_cat_002690.jpg,images/pixabay_cat_004148.jpg,Jesse,001,2021-07-19_16h02.09.851,Cat face experiment_fully sample_901-1225,2021.1.4,Win32,60.08171113
,,,,,,p,0.8088,0,319,319,319,1,319,images/pixabay_cat_003077.jpg,images/pixabay_cat_003312.jpg,Jesse,001,2021-07-19_16h02.09.851,Cat face experiment_fully sample_901-1225,2021.1.4,Win32,60.08171113
,,,,,,p,0.876,0,320,320,320,1,320,images/pixabay_cat_002601.jpg,images/pixabay_cat_001206.jpg,Jesse,001,2021-07-19_16h02.09.851,Cat face experiment_fully sample_901-1225,2021.1.4,Win32,60.08171113
,,,,,,q,1.121,0,321,321,321,1,321,images/pixabay_cat_002979.jpg,images/pixabay_cat_003638.jpg,Jesse,001,2021-07-19_16h02.09.851,Cat face experiment_fully sample_901-1225,2021.1.4,Win32,60.08171113
,,,,,,q,0.8711,0,322,322,322,1,322,images/pixabay_cat_002045.jpg,images/pixabay_cat_001178.jpg,Jesse,001,2021-07-19_16h02.09.851,Cat face experiment_fully sample_901-1225,2021.1.4,Win32,60.08171113
,,,,,,p,0.7898,0,323,323,323,1,323,images/pixabay_cat_001160.jpg,images/pixabay_cat_001178.jpg,Jesse,001,2021-07-19_16h02.09.851,Cat face experiment_fully sample_901-1225,2021.1.4,Win32,60.08171113
,,,,,,p,1.1348,0,324,324,324,1,324,images/flickr_cat_000022.jpg,images/pixabay_cat_003121.jpg,Jesse,001,2021-07-19_16h02.09.851,Cat face experiment_fully sample_901-1225,2021.1.4,Win32,60.08171113
