key_resp.keys,key_resp.rt,key_resp_2.keys,key_resp_2.rt,key_resp_3.keys,key_resp_3.rt,key_resp_4.keys,key_resp_4.rt,trials.thisRepN,trials.thisTrialN,trials.thisN,trials.thisIndex,trials.ran,trail_nums,img1,img2,participant,session,date,expName,psychopyVersion,OS,frameRate
space,4.3372,space,14.8773,space,8.3324,p,6.7559,0,0,0,0,1,0,images/flickr_cat_000206.jpg,images/pixabay_cat_003312.jpg,Jessica U,001,2021-06-23_12h10.49.621,Cat face experiment_fully sample_301-600,2021.1.4,MacIntel,60.0024001
,,,,,,q,1.8366,0,1,1,1,1,1,images/pixabay_cat_000120.jpg,images/pixabay_cat_003312.jpg,Jessica U,001,2021-06-23_12h10.49.621,Cat face experiment_fully sample_301-600,2021.1.4,MacIntel,60.0024001
,,,,,,q,1.6316,0,2,2,2,1,2,images/pixabay_cat_000120.jpg,images/flickr_cat_000083.jpg,Jessica U,001,2021-06-23_12h10.49.621,Cat face experiment_fully sample_301-600,2021.1.4,MacIntel,60.0024001
,,,,,,p,2.0762,0,3,3,3,1,3,images/flickr_cat_000581.jpg,images/pixabay_cat_000043.jpg,Jessica U,001,2021-06-23_12h10.49.621,Cat face experiment_fully sample_301-600,2021.1.4,MacIntel,60.0024001
,,,,,,p,10.3351,0,4,4,4,1,4,images/pixabay_cat_003425.jpg,images/pixabay_cat_001597.jpg,Jessica U,001,2021-06-23_12h10.49.621,Cat face experiment_fully sample_301-600,2021.1.4,MacIntel,60.0024001
,,,,,,p,3.4852,0,5,5,5,1,5,images/pixabay_cat_001265.jpg,images/pixabay_cat_003638.jpg,Jessica U,001,2021-06-23_12h10.49.621,Cat face experiment_fully sample_301-600,2021.1.4,MacIntel,60.0024001
,,,,,,q,4.5076,0,6,6,6,1,6,images/pixabay_cat_003186.jpg,images/pixabay_cat_003312.jpg,Jessica U,001,2021-06-23_12h10.49.621,Cat face experiment_fully sample_301-600,2021.1.4,MacIntel,60.0024001
,,,,,,p,1.9532,0,7,7,7,1,7,images/pixabay_cat_004292.jpg,images/flickr_cat_000200.jpg,Jessica U,001,2021-06-23_12h10.49.621,Cat face experiment_fully sample_301-600,2021.1.4,MacIntel,60.0024001
,,,,,,p,2.135,0,8,8,8,1,8,images/pixabay_cat_001597.jpg,images/pixabay_cat_000883.jpg,Jessica U,001,2021-06-23_12h10.49.621,Cat face experiment_fully sample_301-600,2021.1.4,MacIntel,60.0024001
,,,,,,q,2.5365,0,9,9,9,1,9,images/pixabay_cat_002690.jpg,images/pixabay_cat_001206.jpg,Jessica U,001,2021-06-23_12h10.49.621,Cat face experiment_fully sample_301-600,2021.1.4,MacIntel,60.0024001
,,,,,,q,1.2019,0,10,10,10,1,10,images/flickr_cat_000581.jpg,images/pixabay_cat_001805.jpg,Jessica U,001,2021-06-23_12h10.49.621,Cat face experiment_fully sample_301-600,2021.1.4,MacIntel,60.0024001
,,,,,,p,2.6382,0,11,11,11,1,11,images/pixabay_cat_001284.jpg,images/pixabay_cat_001178.jpg,Jessica U,001,2021-06-23_12h10.49.621,Cat face experiment_fully sample_301-600,2021.1.4,MacIntel,60.0024001
,,,,,,p,5.2172,0,12,12,12,1,12,images/pixabay_cat_003186.jpg,images/pixabay_cat_002300.jpg,Jessica U,001,2021-06-23_12h10.49.621,Cat face experiment_fully sample_301-600,2021.1.4,MacIntel,60.0024001
,,,,,,q,1.5846,0,13,13,13,1,13,images/pixabay_cat_001102.jpg,images/pixabay_cat_003186.jpg,Jessica U,001,2021-06-23_12h10.49.621,Cat face experiment_fully sample_301-600,2021.1.4,MacIntel,60.0024001
,,,,,,q,3.0701,0,14,14,14,1,14,images/flickr_cat_000206.jpg,images/pixabay_cat_000100.jpg,Jessica U,001,2021-06-23_12h10.49.621,Cat face experiment_fully sample_301-600,2021.1.4,MacIntel,60.0024001
,,,,,,p,5.6948,0,15,15,15,1,15,images/pixabay_cat_001597.jpg,images/pixabay_cat_001805.jpg,Jessica U,001,2021-06-23_12h10.49.621,Cat face experiment_fully sample_301-600,2021.1.4,MacIntel,60.0024001
,,,,,,p,2.2351,0,16,16,16,1,16,images/pixabay_cat_002300.jpg,images/flickr_cat_000200.jpg,Jessica U,001,2021-06-23_12h10.49.621,Cat face experiment_fully sample_301-600,2021.1.4,MacIntel,60.0024001
,,,,,,q,1.7567,0,17,17,17,1,17,images/flickr_cat_000271.jpg,images/pixabay_cat_003121.jpg,Jessica U,001,2021-06-23_12h10.49.621,Cat face experiment_fully sample_301-600,2021.1.4,MacIntel,60.0024001
,,,,,,p,8.1203,0,18,18,18,1,18,images/flickr_cat_000240.jpg,images/pixabay_cat_001178.jpg,Jessica U,001,2021-06-23_12h10.49.621,Cat face experiment_fully sample_301-600,2021.1.4,MacIntel,60.0024001
,,,,,,p,3.7563,0,19,19,19,1,19,images/pixabay_cat_003425.jpg,images/pixabay_cat_001284.jpg,Jessica U,001,2021-06-23_12h10.49.621,Cat face experiment_fully sample_301-600,2021.1.4,MacIntel,60.0024001
,,,,,,p,2.3866,0,20,20,20,1,20,images/flickr_cat_000271.jpg,images/pixabay_cat_001862.jpg,Jessica U,001,2021-06-23_12h10.49.621,Cat face experiment_fully sample_301-600,2021.1.4,MacIntel,60.0024001
,,,,,,q,3.7781,0,21,21,21,1,21,images/pixabay_cat_003228.jpg,images/pixabay_cat_003077.jpg,Jessica U,001,2021-06-23_12h10.49.621,Cat face experiment_fully sample_301-600,2021.1.4,MacIntel,60.0024001
,,,,,,q,13.5072,0,22,22,22,1,22,images/pixabay_cat_003228.jpg,images/pixabay_cat_001304.jpg,Jessica U,001,2021-06-23_12h10.49.621,Cat face experiment_fully sample_301-600,2021.1.4,MacIntel,60.0024001
,,,,,,p,4.6857,0,23,23,23,1,23,images/pixabay_cat_000260.jpg,images/pixabay_cat_003121.jpg,Jessica U,001,2021-06-23_12h10.49.621,Cat face experiment_fully sample_301-600,2021.1.4,MacIntel,60.0024001
,,,,,,p,2.0177,0,24,24,24,1,24,images/pixabay_cat_001502.jpg,images/pixabay_cat_001284.jpg,Jessica U,001,2021-06-23_12h10.49.621,Cat face experiment_fully sample_301-600,2021.1.4,MacIntel,60.0024001
,,,,,,p,2.507,0,25,25,25,1,25,images/pixabay_cat_003312.jpg,images/pixabay_cat_004182.jpg,Jessica U,001,2021-06-23_12h10.49.621,Cat face experiment_fully sample_301-600,2021.1.4,MacIntel,60.0024001
,,,,,,p,3.5062,0,26,26,26,1,26,images/pixabay_cat_004641.jpg,images/pixabay_cat_001284.jpg,Jessica U,001,2021-06-23_12h10.49.621,Cat face experiment_fully sample_301-600,2021.1.4,MacIntel,60.0024001
,,,,,,q,2.6538,0,27,27,27,1,27,images/pixabay_cat_004148.jpg,images/pixabay_cat_001284.jpg,Jessica U,001,2021-06-23_12h10.49.621,Cat face experiment_fully sample_301-600,2021.1.4,MacIntel,60.0024001
,,,,,,q,9.7021,0,28,28,28,1,28,images/pixabay_cat_000411.jpg,images/flickr_cat_000271.jpg,Jessica U,001,2021-06-23_12h10.49.621,Cat face experiment_fully sample_301-600,2021.1.4,MacIntel,60.0024001
,,,,,,p,4.7025,0,29,29,29,1,29,images/pixabay_cat_002614.jpg,images/pixabay_cat_004148.jpg,Jessica U,001,2021-06-23_12h10.49.621,Cat face experiment_fully sample_301-600,2021.1.4,MacIntel,60.0024001
,,,,,,p,3.2356,0,30,30,30,1,30,images/pixabay_cat_003077.jpg,images/pixabay_cat_001805.jpg,Jessica U,001,2021-06-23_12h10.49.621,Cat face experiment_fully sample_301-600,2021.1.4,MacIntel,60.0024001
,,,,,,q,4.1531,0,31,31,31,1,31,images/pixabay_cat_002614.jpg,images/pixabay_cat_000100.jpg,Jessica U,001,2021-06-23_12h10.49.621,Cat face experiment_fully sample_301-600,2021.1.4,MacIntel,60.0024001
,,,,,,p,11.6964,0,32,32,32,1,32,images/pixabay_cat_002614.jpg,images/pixabay_cat_003121.jpg,Jessica U,001,2021-06-23_12h10.49.621,Cat face experiment_fully sample_301-600,2021.1.4,MacIntel,60.0024001
,,,,,,q,2.0702,0,33,33,33,1,33,images/pixabay_cat_001160.jpg,images/pixabay_cat_000100.jpg,Jessica U,001,2021-06-23_12h10.49.621,Cat face experiment_fully sample_301-600,2021.1.4,MacIntel,60.0024001
,,,,,,q,1.2362,0,34,34,34,1,34,images/pixabay_cat_000043.jpg,images/pixabay_cat_001178.jpg,Jessica U,001,2021-06-23_12h10.49.621,Cat face experiment_fully sample_301-600,2021.1.4,MacIntel,60.0024001
,,,,,,q,2.4494,0,35,35,35,1,35,images/pixabay_cat_004489.jpg,images/pixabay_cat_003927.jpg,Jessica U,001,2021-06-23_12h10.49.621,Cat face experiment_fully sample_301-600,2021.1.4,MacIntel,60.0024001
,,,,,,q,1.4026,0,36,36,36,1,36,images/pixabay_cat_000120.jpg,images/flickr_cat_000200.jpg,Jessica U,001,2021-06-23_12h10.49.621,Cat face experiment_fully sample_301-600,2021.1.4,MacIntel,60.0024001
,,,,,,q,4.9185,0,37,37,37,1,37,images/pixabay_cat_002601.jpg,images/pixabay_cat_001178.jpg,Jessica U,001,2021-06-23_12h10.49.621,Cat face experiment_fully sample_301-600,2021.1.4,MacIntel,60.0024001
,,,,,,q,1.921,0,38,38,38,1,38,images/flickr_cat_000083.jpg,images/pixabay_cat_003638.jpg,Jessica U,001,2021-06-23_12h10.49.621,Cat face experiment_fully sample_301-600,2021.1.4,MacIntel,60.0024001
,,,,,,q,1.0856,0,39,39,39,1,39,images/flickr_cat_000581.jpg,images/pixabay_cat_000260.jpg,Jessica U,001,2021-06-23_12h10.49.621,Cat face experiment_fully sample_301-600,2021.1.4,MacIntel,60.0024001
,,,,,,q,2.4584,0,40,40,40,1,40,images/flickr_cat_000022.jpg,images/flickr_cat_000083.jpg,Jessica U,001,2021-06-23_12h10.49.621,Cat face experiment_fully sample_301-600,2021.1.4,MacIntel,60.0024001
,,,,,,q,1.7746,0,41,41,41,1,41,images/flickr_cat_000271.jpg,images/flickr_cat_000200.jpg,Jessica U,001,2021-06-23_12h10.49.621,Cat face experiment_fully sample_301-600,2021.1.4,MacIntel,60.0024001
,,,,,,p,3.0881,0,42,42,42,1,42,images/pixabay_cat_003638.jpg,images/pixabay_cat_003312.jpg,Jessica U,001,2021-06-23_12h10.49.621,Cat face experiment_fully sample_301-600,2021.1.4,MacIntel,60.0024001
,,,,,,p,2.9912,0,43,43,43,1,43,images/pixabay_cat_003635.jpg,images/pixabay_cat_004049.jpg,Jessica U,001,2021-06-23_12h10.49.621,Cat face experiment_fully sample_301-600,2021.1.4,MacIntel,60.0024001
,,,,,,p,13.8903,0,44,44,44,1,44,images/pixabay_cat_004049.jpg,images/pixabay_cat_003121.jpg,Jessica U,001,2021-06-23_12h10.49.621,Cat face experiment_fully sample_301-600,2021.1.4,MacIntel,60.0024001
,,,,,,p,2.2201,0,45,45,45,1,45,images/pixabay_cat_004641.jpg,images/pixabay_cat_001805.jpg,Jessica U,001,2021-06-23_12h10.49.621,Cat face experiment_fully sample_301-600,2021.1.4,MacIntel,60.0024001
,,,,,,q,3.1193,0,46,46,46,1,46,images/flickr_cat_000266.jpg,images/flickr_cat_000271.jpg,Jessica U,001,2021-06-23_12h10.49.621,Cat face experiment_fully sample_301-600,2021.1.4,MacIntel,60.0024001
,,,,,,p,3.8913,0,47,47,47,1,47,images/pixabay_cat_003077.jpg,images/pixabay_cat_002045.jpg,Jessica U,001,2021-06-23_12h10.49.621,Cat face experiment_fully sample_301-600,2021.1.4,MacIntel,60.0024001
,,,,,,q,5.4572,0,48,48,48,1,48,images/flickr_cat_000240.jpg,images/pixabay_cat_004182.jpg,Jessica U,001,2021-06-23_12h10.49.621,Cat face experiment_fully sample_301-600,2021.1.4,MacIntel,60.0024001
,,,,,,q,1.9361,0,49,49,49,1,49,images/pixabay_cat_001102.jpg,images/pixabay_cat_004489.jpg,Jessica U,001,2021-06-23_12h10.49.621,Cat face experiment_fully sample_301-600,2021.1.4,MacIntel,60.0024001
,,,,,,q,1.3359,0,50,50,50,1,50,images/pixabay_cat_002690.jpg,images/pixabay_cat_003077.jpg,Jessica U,001,2021-06-23_12h10.49.621,Cat face experiment_fully sample_301-600,2021.1.4,MacIntel,60.0024001
,,,,,,q,1.4344,0,51,51,51,1,51,images/pixabay_cat_003566.jpg,images/pixabay_cat_001265.jpg,Jessica U,001,2021-06-23_12h10.49.621,Cat face experiment_fully sample_301-600,2021.1.4,MacIntel,60.0024001
,,,,,,p,0.9905,0,52,52,52,1,52,images/pixabay_cat_003635.jpg,images/pixabay_cat_001284.jpg,Jessica U,001,2021-06-23_12h10.49.621,Cat face experiment_fully sample_301-600,2021.1.4,MacIntel,60.0024001
,,,,,,q,5.5918,0,53,53,53,1,53,images/pixabay_cat_004641.jpg,images/pixabay_cat_002614.jpg,Jessica U,001,2021-06-23_12h10.49.621,Cat face experiment_fully sample_301-600,2021.1.4,MacIntel,60.0024001
,,,,,,q,1.0905,0,54,54,54,1,54,images/pixabay_cat_000120.jpg,images/pixabay_cat_000100.jpg,Jessica U,001,2021-06-23_12h10.49.621,Cat face experiment_fully sample_301-600,2021.1.4,MacIntel,60.0024001
,,,,,,q,1.3079,0,55,55,55,1,55,images/pixabay_cat_000411.jpg,images/pixabay_cat_001265.jpg,Jessica U,001,2021-06-23_12h10.49.621,Cat face experiment_fully sample_301-600,2021.1.4,MacIntel,60.0024001
,,,,,,q,1.3231,0,56,56,56,1,56,images/pixabay_cat_002300.jpg,images/pixabay_cat_000100.jpg,Jessica U,001,2021-06-23_12h10.49.621,Cat face experiment_fully sample_301-600,2021.1.4,MacIntel,60.0024001
,,,,,,q,2.1299,0,57,57,57,1,57,images/pixabay_cat_003121.jpg,images/pixabay_cat_000100.jpg,Jessica U,001,2021-06-23_12h10.49.621,Cat face experiment_fully sample_301-600,2021.1.4,MacIntel,60.0024001
,,,,,,q,4.2695,0,58,58,58,1,58,images/flickr_cat_000022.jpg,images/pixabay_cat_001597.jpg,Jessica U,001,2021-06-23_12h10.49.621,Cat face experiment_fully sample_301-600,2021.1.4,MacIntel,60.0024001
,,,,,,q,1.4761,0,59,59,59,1,59,images/pixabay_cat_000043.jpg,images/pixabay_cat_002045.jpg,Jessica U,001,2021-06-23_12h10.49.621,Cat face experiment_fully sample_301-600,2021.1.4,MacIntel,60.0024001
,,,,,,p,1.369,0,60,60,60,1,60,images/pixabay_cat_001206.jpg,images/pixabay_cat_000286.jpg,Jessica U,001,2021-06-23_12h10.49.621,Cat face experiment_fully sample_301-600,2021.1.4,MacIntel,60.0024001
,,,,,,q,3.456,0,61,61,61,1,61,images/pixabay_cat_004148.jpg,images/flickr_cat_000200.jpg,Jessica U,001,2021-06-23_12h10.49.621,Cat face experiment_fully sample_301-600,2021.1.4,MacIntel,60.0024001
,,,,,,q,5.6041,0,62,62,62,1,62,images/flickr_cat_000581.jpg,images/pixabay_cat_004148.jpg,Jessica U,001,2021-06-23_12h10.49.621,Cat face experiment_fully sample_301-600,2021.1.4,MacIntel,60.0024001
,,,,,,q,1.2864,0,63,63,63,1,63,images/pixabay_cat_004641.jpg,images/pixabay_cat_001206.jpg,Jessica U,001,2021-06-23_12h10.49.621,Cat face experiment_fully sample_301-600,2021.1.4,MacIntel,60.0024001
,,,,,,q,2.0063,0,64,64,64,1,64,images/pixabay_cat_003228.jpg,images/pixabay_cat_003186.jpg,Jessica U,001,2021-06-23_12h10.49.621,Cat face experiment_fully sample_301-600,2021.1.4,MacIntel,60.0024001
,,,,,,p,2.0074,0,65,65,65,1,65,images/pixabay_cat_002300.jpg,images/pixabay_cat_003312.jpg,Jessica U,001,2021-06-23_12h10.49.621,Cat face experiment_fully sample_301-600,2021.1.4,MacIntel,60.0024001
,,,,,,p,1.3347,0,66,66,66,1,66,images/flickr_cat_000266.jpg,images/pixabay_cat_002979.jpg,Jessica U,001,2021-06-23_12h10.49.621,Cat face experiment_fully sample_301-600,2021.1.4,MacIntel,60.0024001
,,,,,,p,1.4753,0,67,67,67,1,67,images/pixabay_cat_003425.jpg,images/pixabay_cat_004049.jpg,Jessica U,001,2021-06-23_12h10.49.621,Cat face experiment_fully sample_301-600,2021.1.4,MacIntel,60.0024001
,,,,,,q,1.1189,0,68,68,68,1,68,images/pixabay_cat_000120.jpg,images/pixabay_cat_000883.jpg,Jessica U,001,2021-06-23_12h10.49.621,Cat face experiment_fully sample_301-600,2021.1.4,MacIntel,60.0024001
,,,,,,p,1.7619,0,69,69,69,1,69,images/pixabay_cat_000260.jpg,images/pixabay_cat_002690.jpg,Jessica U,001,2021-06-23_12h10.49.621,Cat face experiment_fully sample_301-600,2021.1.4,MacIntel,60.0024001
,,,,,,q,1.2907,0,70,70,70,1,70,images/pixabay_cat_002601.jpg,images/pixabay_cat_002614.jpg,Jessica U,001,2021-06-23_12h10.49.621,Cat face experiment_fully sample_301-600,2021.1.4,MacIntel,60.0024001
,,,,,,q,2.9568,0,71,71,71,1,71,images/pixabay_cat_003566.jpg,images/pixabay_cat_004641.jpg,Jessica U,001,2021-06-23_12h10.49.621,Cat face experiment_fully sample_301-600,2021.1.4,MacIntel,60.0024001
,,,,,,q,0.9414,0,72,72,72,1,72,images/flickr_cat_000271.jpg,images/pixabay_cat_000100.jpg,Jessica U,001,2021-06-23_12h10.49.621,Cat face experiment_fully sample_301-600,2021.1.4,MacIntel,60.0024001
,,,,,,p,1.2397,0,73,73,73,1,73,images/pixabay_cat_003425.jpg,images/flickr_cat_000022.jpg,Jessica U,001,2021-06-23_12h10.49.621,Cat face experiment_fully sample_301-600,2021.1.4,MacIntel,60.0024001
,,,,,,p,2.0021,0,74,74,74,1,74,images/pixabay_cat_004292.jpg,images/pixabay_cat_003121.jpg,Jessica U,001,2021-06-23_12h10.49.621,Cat face experiment_fully sample_301-600,2021.1.4,MacIntel,60.0024001
,,,,,,q,0.9725,0,75,75,75,1,75,images/pixabay_cat_002690.jpg,images/pixabay_cat_000100.jpg,Jessica U,001,2021-06-23_12h10.49.621,Cat face experiment_fully sample_301-600,2021.1.4,MacIntel,60.0024001
,,,,,,p,1.6889,0,76,76,76,1,76,images/flickr_cat_000266.jpg,images/pixabay_cat_002614.jpg,Jessica U,001,2021-06-23_12h10.49.621,Cat face experiment_fully sample_301-600,2021.1.4,MacIntel,60.0024001
,,,,,,q,1.5857,0,77,77,77,1,77,images/pixabay_cat_001502.jpg,images/pixabay_cat_003425.jpg,Jessica U,001,2021-06-23_12h10.49.621,Cat face experiment_fully sample_301-600,2021.1.4,MacIntel,60.0024001
,,,,,,q,1.0605,0,78,78,78,1,78,images/pixabay_cat_000043.jpg,images/flickr_cat_000271.jpg,Jessica U,001,2021-06-23_12h10.49.621,Cat face experiment_fully sample_301-600,2021.1.4,MacIntel,60.0024001
,,,,,,p,2.0736,0,79,79,79,1,79,images/pixabay_cat_000260.jpg,images/pixabay_cat_003566.jpg,Jessica U,001,2021-06-23_12h10.49.621,Cat face experiment_fully sample_301-600,2021.1.4,MacIntel,60.0024001
,,,,,,p,3.9778,0,80,80,80,1,80,images/pixabay_cat_003186.jpg,images/pixabay_cat_004148.jpg,Jessica U,001,2021-06-23_12h10.49.621,Cat face experiment_fully sample_301-600,2021.1.4,MacIntel,60.0024001
,,,,,,p,2.9526,0,81,81,81,1,81,images/pixabay_cat_004049.jpg,images/pixabay_cat_000883.jpg,Jessica U,001,2021-06-23_12h10.49.621,Cat face experiment_fully sample_301-600,2021.1.4,MacIntel,60.0024001
,,,,,,p,5.1588,0,82,82,82,1,82,images/pixabay_cat_000411.jpg,images/pixabay_cat_001502.jpg,Jessica U,001,2021-06-23_12h10.49.621,Cat face experiment_fully sample_301-600,2021.1.4,MacIntel,60.0024001
,,,,,,q,17.1525,0,83,83,83,1,83,images/pixabay_cat_001597.jpg,images/pixabay_cat_003638.jpg,Jessica U,001,2021-06-23_12h10.49.621,Cat face experiment_fully sample_301-600,2021.1.4,MacIntel,60.0024001
,,,,,,q,1.0723,0,84,84,84,1,84,images/pixabay_cat_001102.jpg,images/pixabay_cat_002300.jpg,Jessica U,001,2021-06-23_12h10.49.621,Cat face experiment_fully sample_301-600,2021.1.4,MacIntel,60.0024001
,,,,,,p,2.0582,0,85,85,85,1,85,images/flickr_cat_000206.jpg,images/pixabay_cat_001805.jpg,Jessica U,001,2021-06-23_12h10.49.621,Cat face experiment_fully sample_301-600,2021.1.4,MacIntel,60.0024001
,,,,,,p,1.4067,0,86,86,86,1,86,images/pixabay_cat_001206.jpg,images/pixabay_cat_002930.jpg,Jessica U,001,2021-06-23_12h10.49.621,Cat face experiment_fully sample_301-600,2021.1.4,MacIntel,60.0024001
,,,,,,p,0.9704,0,87,87,87,1,87,images/pixabay_cat_004292.jpg,images/pixabay_cat_001102.jpg,Jessica U,001,2021-06-23_12h10.49.621,Cat face experiment_fully sample_301-600,2021.1.4,MacIntel,60.0024001
,,,,,,p,2.935,0,88,88,88,1,88,images/pixabay_cat_003927.jpg,images/pixabay_cat_000286.jpg,Jessica U,001,2021-06-23_12h10.49.621,Cat face experiment_fully sample_301-600,2021.1.4,MacIntel,60.0024001
,,,,,,q,2.9062,0,89,89,89,1,89,images/pixabay_cat_004641.jpg,images/pixabay_cat_001304.jpg,Jessica U,001,2021-06-23_12h10.49.621,Cat face experiment_fully sample_301-600,2021.1.4,MacIntel,60.0024001
,,,,,,p,1.2684,0,90,90,90,1,90,images/pixabay_cat_002045.jpg,images/pixabay_cat_001160.jpg,Jessica U,001,2021-06-23_12h10.49.621,Cat face experiment_fully sample_301-600,2021.1.4,MacIntel,60.0024001
,,,,,,q,3.2527,0,91,91,91,1,91,images/pixabay_cat_003566.jpg,images/pixabay_cat_002045.jpg,Jessica U,001,2021-06-23_12h10.49.621,Cat face experiment_fully sample_301-600,2021.1.4,MacIntel,60.0024001
,,,,,,q,0.9792,0,92,92,92,1,92,images/pixabay_cat_000043.jpg,images/pixabay_cat_004489.jpg,Jessica U,001,2021-06-23_12h10.49.621,Cat face experiment_fully sample_301-600,2021.1.4,MacIntel,60.0024001
,,,,,,p,1.4288,0,93,93,93,1,93,images/pixabay_cat_001597.jpg,images/pixabay_cat_004049.jpg,Jessica U,001,2021-06-23_12h10.49.621,Cat face experiment_fully sample_301-600,2021.1.4,MacIntel,60.0024001
,,,,,,q,0.9461,0,94,94,94,1,94,images/flickr_cat_000581.jpg,images/pixabay_cat_003077.jpg,Jessica U,001,2021-06-23_12h10.49.621,Cat face experiment_fully sample_301-600,2021.1.4,MacIntel,60.0024001
,,,,,,q,1.4635,0,95,95,95,1,95,images/pixabay_cat_000260.jpg,images/pixabay_cat_003077.jpg,Jessica U,001,2021-06-23_12h10.49.621,Cat face experiment_fully sample_301-600,2021.1.4,MacIntel,60.0024001
,,,,,,q,0.9101,0,96,96,96,1,96,images/pixabay_cat_000043.jpg,images/pixabay_cat_001206.jpg,Jessica U,001,2021-06-23_12h10.49.621,Cat face experiment_fully sample_301-600,2021.1.4,MacIntel,60.0024001
,,,,,,q,3.2912,0,97,97,97,1,97,images/pixabay_cat_003228.jpg,images/pixabay_cat_002601.jpg,Jessica U,001,2021-06-23_12h10.49.621,Cat face experiment_fully sample_301-600,2021.1.4,MacIntel,60.0024001
,,,,,,p,7.7386,0,98,98,98,1,98,images/pixabay_cat_003635.jpg,images/pixabay_cat_003425.jpg,Jessica U,001,2021-06-23_12h10.49.621,Cat face experiment_fully sample_301-600,2021.1.4,MacIntel,60.0024001
,,,,,,q,9.5571,0,99,99,99,1,99,images/pixabay_cat_003312.jpg,images/pixabay_cat_001805.jpg,Jessica U,001,2021-06-23_12h10.49.621,Cat face experiment_fully sample_301-600,2021.1.4,MacIntel,60.0024001
,,,,,,p,1.5419,0,100,100,100,1,100,images/pixabay_cat_004182.jpg,images/pixabay_cat_000883.jpg,Jessica U,001,2021-06-23_12h10.49.621,Cat face experiment_fully sample_301-600,2021.1.4,MacIntel,60.0024001
,,,,,,q,2.0077,0,101,101,101,1,101,images/pixabay_cat_003566.jpg,images/pixabay_cat_003638.jpg,Jessica U,001,2021-06-23_12h10.49.621,Cat face experiment_fully sample_301-600,2021.1.4,MacIntel,60.0024001
,,,,,,p,1.1896,0,102,102,102,1,102,images/pixabay_cat_004292.jpg,images/pixabay_cat_001284.jpg,Jessica U,001,2021-06-23_12h10.49.621,Cat face experiment_fully sample_301-600,2021.1.4,MacIntel,60.0024001
,,,,,,q,0.8746,0,103,103,103,1,103,images/pixabay_cat_000043.jpg,images/flickr_cat_000022.jpg,Jessica U,001,2021-06-23_12h10.49.621,Cat face experiment_fully sample_301-600,2021.1.4,MacIntel,60.0024001
,,,,,,p,1.8807,0,104,104,104,1,104,images/pixabay_cat_000260.jpg,images/pixabay_cat_002601.jpg,Jessica U,001,2021-06-23_12h10.49.621,Cat face experiment_fully sample_301-600,2021.1.4,MacIntel,60.0024001
,,,,,,p,4.3239,0,105,105,105,1,105,images/pixabay_cat_001304.jpg,images/pixabay_cat_000883.jpg,Jessica U,001,2021-06-23_12h10.49.621,Cat face experiment_fully sample_301-600,2021.1.4,MacIntel,60.0024001
,,,,,,p,4.4427,0,106,106,106,1,106,images/pixabay_cat_001102.jpg,images/pixabay_cat_001160.jpg,Jessica U,001,2021-06-23_12h10.49.621,Cat face experiment_fully sample_301-600,2021.1.4,MacIntel,60.0024001
,,,,,,q,2.2864,0,107,107,107,1,107,images/flickr_cat_000581.jpg,images/flickr_cat_000240.jpg,Jessica U,001,2021-06-23_12h10.49.621,Cat face experiment_fully sample_301-600,2021.1.4,MacIntel,60.0024001
,,,,,,p,1.5896,0,108,108,108,1,108,images/pixabay_cat_001265.jpg,images/pixabay_cat_001178.jpg,Jessica U,001,2021-06-23_12h10.49.621,Cat face experiment_fully sample_301-600,2021.1.4,MacIntel,60.0024001
,,,,,,p,1.9888,0,109,109,109,1,109,images/pixabay_cat_003566.jpg,images/flickr_cat_000285.jpg,Jessica U,001,2021-06-23_12h10.49.621,Cat face experiment_fully sample_301-600,2021.1.4,MacIntel,60.0024001
,,,,,,p,3.7234,0,110,110,110,1,110,images/pixabay_cat_003121.jpg,images/pixabay_cat_002930.jpg,Jessica U,001,2021-06-23_12h10.49.621,Cat face experiment_fully sample_301-600,2021.1.4,MacIntel,60.0024001
,,,,,,q,1.3041,0,111,111,111,1,111,images/pixabay_cat_003566.jpg,images/flickr_cat_000271.jpg,Jessica U,001,2021-06-23_12h10.49.621,Cat face experiment_fully sample_301-600,2021.1.4,MacIntel,60.0024001
,,,,,,q,2.1402,0,112,112,112,1,112,images/flickr_cat_000200.jpg,images/pixabay_cat_000883.jpg,Jessica U,001,2021-06-23_12h10.49.621,Cat face experiment_fully sample_301-600,2021.1.4,MacIntel,60.0024001
,,,,,,q,1.3926,0,113,113,113,1,113,images/pixabay_cat_001102.jpg,images/flickr_cat_000206.jpg,Jessica U,001,2021-06-23_12h10.49.621,Cat face experiment_fully sample_301-600,2021.1.4,MacIntel,60.0024001
,,,,,,q,2.694,0,114,114,114,1,114,images/pixabay_cat_003312.jpg,images/pixabay_cat_000883.jpg,Jessica U,001,2021-06-23_12h10.49.621,Cat face experiment_fully sample_301-600,2021.1.4,MacIntel,60.0024001
,,,,,,q,0.8778,0,115,115,115,1,115,images/flickr_cat_000581.jpg,images/pixabay_cat_000100.jpg,Jessica U,001,2021-06-23_12h10.49.621,Cat face experiment_fully sample_301-600,2021.1.4,MacIntel,60.0024001
,,,,,,p,1.7159,0,116,116,116,1,116,images/pixabay_cat_003425.jpg,images/flickr_cat_000240.jpg,Jessica U,001,2021-06-23_12h10.49.621,Cat face experiment_fully sample_301-600,2021.1.4,MacIntel,60.0024001
,,,,,,q,1.311,0,117,117,117,1,117,images/flickr_cat_000285.jpg,images/pixabay_cat_004049.jpg,Jessica U,001,2021-06-23_12h10.49.621,Cat face experiment_fully sample_301-600,2021.1.4,MacIntel,60.0024001
,,,,,,p,2.0399,0,118,118,118,1,118,images/pixabay_cat_000260.jpg,images/pixabay_cat_003312.jpg,Jessica U,001,2021-06-23_12h10.49.621,Cat face experiment_fully sample_301-600,2021.1.4,MacIntel,60.0024001
,,,,,,q,1.7101,0,119,119,119,1,119,images/pixabay_cat_003228.jpg,images/pixabay_cat_003312.jpg,Jessica U,001,2021-06-23_12h10.49.621,Cat face experiment_fully sample_301-600,2021.1.4,MacIntel,60.0024001
,,,,,,q,1.2578,0,120,120,120,1,120,images/pixabay_cat_004148.jpg,images/pixabay_cat_000883.jpg,Jessica U,001,2021-06-23_12h10.49.621,Cat face experiment_fully sample_301-600,2021.1.4,MacIntel,60.0024001
,,,,,,q,1.2089,0,121,121,121,1,121,images/pixabay_cat_001102.jpg,images/pixabay_cat_002045.jpg,Jessica U,001,2021-06-23_12h10.49.621,Cat face experiment_fully sample_301-600,2021.1.4,MacIntel,60.0024001
,,,,,,p,2.792,0,122,122,122,1,122,images/pixabay_cat_002979.jpg,images/flickr_cat_000271.jpg,Jessica U,001,2021-06-23_12h10.49.621,Cat face experiment_fully sample_301-600,2021.1.4,MacIntel,60.0024001
,,,,,,p,7.7052,0,123,123,123,1,123,images/pixabay_cat_003425.jpg,images/pixabay_cat_000100.jpg,Jessica U,001,2021-06-23_12h10.49.621,Cat face experiment_fully sample_301-600,2021.1.4,MacIntel,60.0024001
,,,,,,q,1.9183,0,124,124,124,1,124,images/pixabay_cat_002690.jpg,images/flickr_cat_000022.jpg,Jessica U,001,2021-06-23_12h10.49.621,Cat face experiment_fully sample_301-600,2021.1.4,MacIntel,60.0024001
,,,,,,p,1.8934,0,125,125,125,1,125,images/flickr_cat_000271.jpg,images/pixabay_cat_000883.jpg,Jessica U,001,2021-06-23_12h10.49.621,Cat face experiment_fully sample_301-600,2021.1.4,MacIntel,60.0024001
,,,,,,p,2.2918,0,126,126,126,1,126,images/flickr_cat_000083.jpg,images/pixabay_cat_004182.jpg,Jessica U,001,2021-06-23_12h10.49.621,Cat face experiment_fully sample_301-600,2021.1.4,MacIntel,60.0024001
,,,,,,p,1.2086,0,127,127,127,1,127,images/pixabay_cat_004489.jpg,images/pixabay_cat_003312.jpg,Jessica U,001,2021-06-23_12h10.49.621,Cat face experiment_fully sample_301-600,2021.1.4,MacIntel,60.0024001
,,,,,,p,1.3914,0,128,128,128,1,128,images/pixabay_cat_003121.jpg,images/pixabay_cat_001284.jpg,Jessica U,001,2021-06-23_12h10.49.621,Cat face experiment_fully sample_301-600,2021.1.4,MacIntel,60.0024001
,,,,,,p,1.9699,0,129,129,129,1,129,images/pixabay_cat_002300.jpg,images/pixabay_cat_001862.jpg,Jessica U,001,2021-06-23_12h10.49.621,Cat face experiment_fully sample_301-600,2021.1.4,MacIntel,60.0024001
,,,,,,p,3.7237,0,130,130,130,1,130,images/pixabay_cat_003186.jpg,images/pixabay_cat_003927.jpg,Jessica U,001,2021-06-23_12h10.49.621,Cat face experiment_fully sample_301-600,2021.1.4,MacIntel,60.0024001
,,,,,,p,0.9422,0,131,131,131,1,131,images/pixabay_cat_001265.jpg,images/pixabay_cat_002045.jpg,Jessica U,001,2021-06-23_12h10.49.621,Cat face experiment_fully sample_301-600,2021.1.4,MacIntel,60.0024001
,,,,,,p,1.307,0,132,132,132,1,132,images/pixabay_cat_000411.jpg,images/pixabay_cat_001160.jpg,Jessica U,001,2021-06-23_12h10.49.621,Cat face experiment_fully sample_301-600,2021.1.4,MacIntel,60.0024001
,,,,,,q,0.9781,0,133,133,133,1,133,images/pixabay_cat_000411.jpg,images/flickr_cat_000206.jpg,Jessica U,001,2021-06-23_12h10.49.621,Cat face experiment_fully sample_301-600,2021.1.4,MacIntel,60.0024001
,,,,,,q,2.6065,0,134,134,134,1,134,images/flickr_cat_000022.jpg,images/pixabay_cat_002300.jpg,Jessica U,001,2021-06-23_12h10.49.621,Cat face experiment_fully sample_301-600,2021.1.4,MacIntel,60.0024001
,,,,,,q,1.0777,0,135,135,135,1,135,images/pixabay_cat_004292.jpg,images/pixabay_cat_000260.jpg,Jessica U,001,2021-06-23_12h10.49.621,Cat face experiment_fully sample_301-600,2021.1.4,MacIntel,60.0024001
,,,,,,q,1.0765,0,136,136,136,1,136,images/flickr_cat_000285.jpg,images/pixabay_cat_003927.jpg,Jessica U,001,2021-06-23_12h10.49.621,Cat face experiment_fully sample_301-600,2021.1.4,MacIntel,60.0024001
,,,,,,q,1.6565,0,137,137,137,1,137,images/pixabay_cat_001502.jpg,images/flickr_cat_000206.jpg,Jessica U,001,2021-06-23_12h10.49.621,Cat face experiment_fully sample_301-600,2021.1.4,MacIntel,60.0024001
,,,,,,p,1.573,0,138,138,138,1,138,images/flickr_cat_000083.jpg,images/pixabay_cat_003121.jpg,Jessica U,001,2021-06-23_12h10.49.621,Cat face experiment_fully sample_301-600,2021.1.4,MacIntel,60.0024001
,,,,,,q,1.156,0,139,139,139,1,139,images/pixabay_cat_001160.jpg,images/pixabay_cat_002979.jpg,Jessica U,001,2021-06-23_12h10.49.621,Cat face experiment_fully sample_301-600,2021.1.4,MacIntel,60.0024001
,,,,,,q,1.1921,0,140,140,140,1,140,images/pixabay_cat_004292.jpg,images/pixabay_cat_003425.jpg,Jessica U,001,2021-06-23_12h10.49.621,Cat face experiment_fully sample_301-600,2021.1.4,MacIntel,60.0024001
,,,,,,q,1.275,0,141,141,141,1,141,images/pixabay_cat_004148.jpg,images/pixabay_cat_001178.jpg,Jessica U,001,2021-06-23_12h10.49.621,Cat face experiment_fully sample_301-600,2021.1.4,MacIntel,60.0024001
,,,,,,p,1.2088,0,142,142,142,1,142,images/pixabay_cat_003927.jpg,images/pixabay_cat_001304.jpg,Jessica U,001,2021-06-23_12h10.49.621,Cat face experiment_fully sample_301-600,2021.1.4,MacIntel,60.0024001
,,,,,,p,1.2418,0,143,143,143,1,143,images/pixabay_cat_003121.jpg,images/pixabay_cat_000883.jpg,Jessica U,001,2021-06-23_12h10.49.621,Cat face experiment_fully sample_301-600,2021.1.4,MacIntel,60.0024001
,,,,,,q,0.8314,0,144,144,144,1,144,images/pixabay_cat_000043.jpg,images/flickr_cat_000266.jpg,Jessica U,001,2021-06-23_12h10.49.621,Cat face experiment_fully sample_301-600,2021.1.4,MacIntel,60.0024001
,,,,,,q,1.6908,0,145,145,145,1,145,images/flickr_cat_000240.jpg,images/pixabay_cat_003638.jpg,Jessica U,001,2021-06-23_12h10.49.621,Cat face experiment_fully sample_301-600,2021.1.4,MacIntel,60.0024001
,,,,,,q,0.7837,0,146,146,146,1,146,images/pixabay_cat_000120.jpg,images/pixabay_cat_003638.jpg,Jessica U,001,2021-06-23_12h10.49.621,Cat face experiment_fully sample_301-600,2021.1.4,MacIntel,60.0024001
,,,,,,q,1.2249,0,147,147,147,1,147,images/pixabay_cat_004292.jpg,images/flickr_cat_000266.jpg,Jessica U,001,2021-06-23_12h10.49.621,Cat face experiment_fully sample_301-600,2021.1.4,MacIntel,60.0024001
,,,,,,p,1.1237,0,148,148,148,1,148,images/flickr_cat_000581.jpg,images/pixabay_cat_001160.jpg,Jessica U,001,2021-06-23_12h10.49.621,Cat face experiment_fully sample_301-600,2021.1.4,MacIntel,60.0024001
,,,,,,q,1.1063,0,149,149,149,1,149,images/pixabay_cat_004641.jpg,images/pixabay_cat_001265.jpg,Jessica U,001,2021-06-23_12h10.49.621,Cat face experiment_fully sample_301-600,2021.1.4,MacIntel,60.0024001
,,,,,,p,0.6918,0,150,150,150,1,150,images/pixabay_cat_002601.jpg,images/pixabay_cat_001160.jpg,Jessica U,001,2021-06-23_12h10.49.621,Cat face experiment_fully sample_301-600,2021.1.4,MacIntel,60.0024001
,,,,,,q,1.593,0,151,151,151,1,151,images/pixabay_cat_001502.jpg,images/pixabay_cat_001597.jpg,Jessica U,001,2021-06-23_12h10.49.621,Cat face experiment_fully sample_301-600,2021.1.4,MacIntel,60.0024001
,,,,,,q,1.4626,0,152,152,152,1,152,images/pixabay_cat_001502.jpg,images/pixabay_cat_002930.jpg,Jessica U,001,2021-06-23_12h10.49.621,Cat face experiment_fully sample_301-600,2021.1.4,MacIntel,60.0024001
,,,,,,p,1.0568,0,153,153,153,1,153,images/pixabay_cat_002045.jpg,images/flickr_cat_000240.jpg,Jessica U,001,2021-06-23_12h10.49.621,Cat face experiment_fully sample_301-600,2021.1.4,MacIntel,60.0024001
,,,,,,p,3.6197,0,154,154,154,1,154,images/flickr_cat_000266.jpg,images/pixabay_cat_003638.jpg,Jessica U,001,2021-06-23_12h10.49.621,Cat face experiment_fully sample_301-600,2021.1.4,MacIntel,60.0024001
,,,,,,p,1.3533,0,155,155,155,1,155,images/pixabay_cat_004049.jpg,images/pixabay_cat_004148.jpg,Jessica U,001,2021-06-23_12h10.49.621,Cat face experiment_fully sample_301-600,2021.1.4,MacIntel,60.0024001
,,,,,,q,4.9575,0,156,156,156,1,156,images/pixabay_cat_002690.jpg,images/pixabay_cat_002045.jpg,Jessica U,001,2021-06-23_12h10.49.621,Cat face experiment_fully sample_301-600,2021.1.4,MacIntel,60.0024001
,,,,,,q,1.256,0,157,157,157,1,157,images/pixabay_cat_001160.jpg,images/pixabay_cat_004148.jpg,Jessica U,001,2021-06-23_12h10.49.621,Cat face experiment_fully sample_301-600,2021.1.4,MacIntel,60.0024001
,,,,,,p,3.0838,0,158,158,158,1,158,images/flickr_cat_000022.jpg,images/flickr_cat_000240.jpg,Jessica U,001,2021-06-23_12h10.49.621,Cat face experiment_fully sample_301-600,2021.1.4,MacIntel,60.0024001
,,,,,,p,1.2909,0,159,159,159,1,159,images/pixabay_cat_003635.jpg,images/pixabay_cat_001178.jpg,Jessica U,001,2021-06-23_12h10.49.621,Cat face experiment_fully sample_301-600,2021.1.4,MacIntel,60.0024001
,,,,,,p,0.7974,0,160,160,160,1,160,images/pixabay_cat_003635.jpg,images/pixabay_cat_003228.jpg,Jessica U,001,2021-06-23_12h10.49.621,Cat face experiment_fully sample_301-600,2021.1.4,MacIntel,60.0024001
,,,,,,q,1.9946,0,161,161,161,1,161,images/flickr_cat_000581.jpg,images/pixabay_cat_001178.jpg,Jessica U,001,2021-06-23_12h10.49.621,Cat face experiment_fully sample_301-600,2021.1.4,MacIntel,60.0024001
,,,,,,q,1.3846,0,162,162,162,1,162,images/pixabay_cat_001160.jpg,images/pixabay_cat_001284.jpg,Jessica U,001,2021-06-23_12h10.49.621,Cat face experiment_fully sample_301-600,2021.1.4,MacIntel,60.0024001
,,,,,,p,5.5081,0,163,163,163,1,163,images/flickr_cat_000266.jpg,images/pixabay_cat_002930.jpg,Jessica U,001,2021-06-23_12h10.49.621,Cat face experiment_fully sample_301-600,2021.1.4,MacIntel,60.0024001
,,,,,,q,1.34,0,164,164,164,1,164,images/pixabay_cat_002601.jpg,images/pixabay_cat_003186.jpg,Jessica U,001,2021-06-23_12h10.49.621,Cat face experiment_fully sample_301-600,2021.1.4,MacIntel,60.0024001
,,,,,,p,2.4545,0,165,165,165,1,165,images/pixabay_cat_002690.jpg,images/pixabay_cat_004641.jpg,Jessica U,001,2021-06-23_12h10.49.621,Cat face experiment_fully sample_301-600,2021.1.4,MacIntel,60.0024001
,,,,,,p,1.0585,0,166,166,166,1,166,images/pixabay_cat_000260.jpg,images/pixabay_cat_001805.jpg,Jessica U,001,2021-06-23_12h10.49.621,Cat face experiment_fully sample_301-600,2021.1.4,MacIntel,60.0024001
,,,,,,q,4.7681,0,167,167,167,1,167,images/pixabay_cat_003228.jpg,images/flickr_cat_000206.jpg,Jessica U,001,2021-06-23_12h10.49.621,Cat face experiment_fully sample_301-600,2021.1.4,MacIntel,60.0024001
,,,,,,q,1.692,0,168,168,168,1,168,images/flickr_cat_000240.jpg,images/pixabay_cat_003121.jpg,Jessica U,001,2021-06-23_12h10.49.621,Cat face experiment_fully sample_301-600,2021.1.4,MacIntel,60.0024001
,,,,,,p,2.9771,0,169,169,169,1,169,images/pixabay_cat_004292.jpg,images/pixabay_cat_001304.jpg,Jessica U,001,2021-06-23_12h10.49.621,Cat face experiment_fully sample_301-600,2021.1.4,MacIntel,60.0024001
,,,,,,q,1.482,0,170,170,170,1,170,images/pixabay_cat_002601.jpg,images/pixabay_cat_001265.jpg,Jessica U,001,2021-06-23_12h10.49.621,Cat face experiment_fully sample_301-600,2021.1.4,MacIntel,60.0024001
,,,,,,p,1.7008,0,171,171,171,1,171,images/pixabay_cat_001597.jpg,images/flickr_cat_000206.jpg,Jessica U,001,2021-06-23_12h10.49.621,Cat face experiment_fully sample_301-600,2021.1.4,MacIntel,60.0024001
,,,,,,p,5.4136,0,172,172,172,1,172,images/pixabay_cat_002979.jpg,images/pixabay_cat_003312.jpg,Jessica U,001,2021-06-23_12h10.49.621,Cat face experiment_fully sample_301-600,2021.1.4,MacIntel,60.0024001
,,,,,,p,10.2802,0,173,173,173,1,173,images/pixabay_cat_003927.jpg,images/pixabay_cat_001178.jpg,Jessica U,001,2021-06-23_12h10.49.621,Cat face experiment_fully sample_301-600,2021.1.4,MacIntel,60.0024001
,,,,,,q,1.2412,0,174,174,174,1,174,images/flickr_cat_000581.jpg,images/flickr_cat_000200.jpg,Jessica U,001,2021-06-23_12h10.49.621,Cat face experiment_fully sample_301-600,2021.1.4,MacIntel,60.0024001
,,,,,,p,11.0255,0,175,175,175,1,175,images/pixabay_cat_002601.jpg,images/pixabay_cat_000883.jpg,Jessica U,001,2021-06-23_12h10.49.621,Cat face experiment_fully sample_301-600,2021.1.4,MacIntel,60.0024001
,,,,,,q,0.8578,0,176,176,176,1,176,images/flickr_cat_000581.jpg,images/pixabay_cat_001206.jpg,Jessica U,001,2021-06-23_12h10.49.621,Cat face experiment_fully sample_301-600,2021.1.4,MacIntel,60.0024001
,,,,,,q,1.6755,0,177,177,177,1,177,images/pixabay_cat_002614.jpg,images/pixabay_cat_002979.jpg,Jessica U,001,2021-06-23_12h10.49.621,Cat face experiment_fully sample_301-600,2021.1.4,MacIntel,60.0024001
,,,,,,q,1.0069,0,178,178,178,1,178,images/pixabay_cat_000043.jpg,images/flickr_cat_000200.jpg,Jessica U,001,2021-06-23_12h10.49.621,Cat face experiment_fully sample_301-600,2021.1.4,MacIntel,60.0024001
,,,,,,q,1.0387,0,179,179,179,1,179,images/pixabay_cat_001805.jpg,images/pixabay_cat_000100.jpg,Jessica U,001,2021-06-23_12h10.49.621,Cat face experiment_fully sample_301-600,2021.1.4,MacIntel,60.0024001
,,,,,,p,2.8572,0,180,180,180,1,180,images/pixabay_cat_003638.jpg,images/pixabay_cat_004182.jpg,Jessica U,001,2021-06-23_12h10.49.621,Cat face experiment_fully sample_301-600,2021.1.4,MacIntel,60.0024001
,,,,,,q,1.1941,0,181,181,181,1,181,images/flickr_cat_000240.jpg,images/pixabay_cat_002300.jpg,Jessica U,001,2021-06-23_12h10.49.621,Cat face experiment_fully sample_301-600,2021.1.4,MacIntel,60.0024001
,,,,,,p,1.0896,0,182,182,182,1,182,images/pixabay_cat_000260.jpg,images/pixabay_cat_000120.jpg,Jessica U,001,2021-06-23_12h10.49.621,Cat face experiment_fully sample_301-600,2021.1.4,MacIntel,60.0024001
,,,,,,p,1.5028,0,183,183,183,1,183,images/pixabay_cat_003077.jpg,images/flickr_cat_000206.jpg,Jessica U,001,2021-06-23_12h10.49.621,Cat face experiment_fully sample_301-600,2021.1.4,MacIntel,60.0024001
,,,,,,p,1.3074,0,184,184,184,1,184,images/pixabay_cat_001102.jpg,images/pixabay_cat_000286.jpg,Jessica U,001,2021-06-23_12h10.49.621,Cat face experiment_fully sample_301-600,2021.1.4,MacIntel,60.0024001
,,,,,,p,1.2432,0,185,185,185,1,185,images/pixabay_cat_004489.jpg,images/flickr_cat_000200.jpg,Jessica U,001,2021-06-23_12h10.49.621,Cat face experiment_fully sample_301-600,2021.1.4,MacIntel,60.0024001
,,,,,,q,0.7776,0,186,186,186,1,186,images/pixabay_cat_004489.jpg,images/pixabay_cat_001206.jpg,Jessica U,001,2021-06-23_12h10.49.621,Cat face experiment_fully sample_301-600,2021.1.4,MacIntel,60.0024001
,,,,,,q,1.8582,0,187,187,187,1,187,images/pixabay_cat_000411.jpg,images/flickr_cat_000022.jpg,Jessica U,001,2021-06-23_12h10.49.621,Cat face experiment_fully sample_301-600,2021.1.4,MacIntel,60.0024001
,,,,,,p,3.0169,0,188,188,188,1,188,images/pixabay_cat_003425.jpg,images/flickr_cat_000206.jpg,Jessica U,001,2021-06-23_12h10.49.621,Cat face experiment_fully sample_301-600,2021.1.4,MacIntel,60.0024001
,,,,,,q,0.847,0,189,189,189,1,189,images/pixabay_cat_000120.jpg,images/flickr_cat_000206.jpg,Jessica U,001,2021-06-23_12h10.49.621,Cat face experiment_fully sample_301-600,2021.1.4,MacIntel,60.0024001
,,,,,,q,1.79,0,190,190,190,1,190,images/flickr_cat_000581.jpg,images/flickr_cat_000271.jpg,Jessica U,001,2021-06-23_12h10.49.621,Cat face experiment_fully sample_301-600,2021.1.4,MacIntel,60.0024001
,,,,,,p,1.0242,0,191,191,191,1,191,images/pixabay_cat_003425.jpg,images/pixabay_cat_000883.jpg,Jessica U,001,2021-06-23_12h10.49.621,Cat face experiment_fully sample_301-600,2021.1.4,MacIntel,60.0024001
,,,,,,q,1.439,0,192,192,192,1,192,images/pixabay_cat_003566.jpg,images/pixabay_cat_004049.jpg,Jessica U,001,2021-06-23_12h10.49.621,Cat face experiment_fully sample_301-600,2021.1.4,MacIntel,60.0024001
,,,,,,p,0.6965,0,193,193,193,1,193,images/pixabay_cat_003566.jpg,images/pixabay_cat_000120.jpg,Jessica U,001,2021-06-23_12h10.49.621,Cat face experiment_fully sample_301-600,2021.1.4,MacIntel,60.0024001
,,,,,,q,3.9822,0,194,194,194,1,194,images/pixabay_cat_002614.jpg,images/pixabay_cat_001178.jpg,Jessica U,001,2021-06-23_12h10.49.621,Cat face experiment_fully sample_301-600,2021.1.4,MacIntel,60.0024001
,,,,,,q,4.4155,0,195,195,195,1,195,images/flickr_cat_000581.jpg,images/pixabay_cat_001265.jpg,Jessica U,001,2021-06-23_12h10.49.621,Cat face experiment_fully sample_301-600,2021.1.4,MacIntel,60.0024001
,,,,,,p,1.9907,0,196,196,196,1,196,images/pixabay_cat_002601.jpg,images/pixabay_cat_003566.jpg,Jessica U,001,2021-06-23_12h10.49.621,Cat face experiment_fully sample_301-600,2021.1.4,MacIntel,60.0024001
,,,,,,p,1.0257,0,197,197,197,1,197,images/flickr_cat_000266.jpg,images/pixabay_cat_000120.jpg,Jessica U,001,2021-06-23_12h10.49.621,Cat face experiment_fully sample_301-600,2021.1.4,MacIntel,60.0024001
,,,,,,q,4.9123,0,198,198,198,1,198,images/pixabay_cat_003566.jpg,images/pixabay_cat_001304.jpg,Jessica U,001,2021-06-23_12h10.49.621,Cat face experiment_fully sample_301-600,2021.1.4,MacIntel,60.0024001
,,,,,,p,0.9765,0,199,199,199,1,199,images/flickr_cat_000022.jpg,images/pixabay_cat_000120.jpg,Jessica U,001,2021-06-23_12h10.49.621,Cat face experiment_fully sample_301-600,2021.1.4,MacIntel,60.0024001
,,,,,,q,0.9025,0,200,200,200,1,200,images/flickr_cat_000581.jpg,images/pixabay_cat_002300.jpg,Jessica U,001,2021-06-23_12h10.49.621,Cat face experiment_fully sample_301-600,2021.1.4,MacIntel,60.0024001
,,,,,,p,0.9352,0,201,201,201,1,201,images/pixabay_cat_002601.jpg,images/pixabay_cat_000286.jpg,Jessica U,001,2021-06-23_12h10.49.621,Cat face experiment_fully sample_301-600,2021.1.4,MacIntel,60.0024001
,,,,,,p,1.5716,0,202,202,202,1,202,images/pixabay_cat_002300.jpg,images/pixabay_cat_000883.jpg,Jessica U,001,2021-06-23_12h10.49.621,Cat face experiment_fully sample_301-600,2021.1.4,MacIntel,60.0024001
,,,,,,p,5.0263,0,203,203,203,1,203,images/pixabay_cat_004292.jpg,images/pixabay_cat_003312.jpg,Jessica U,001,2021-06-23_12h10.49.621,Cat face experiment_fully sample_301-600,2021.1.4,MacIntel,60.0024001
,,,,,,p,1.0317,0,204,204,204,1,204,images/pixabay_cat_000260.jpg,images/pixabay_cat_001265.jpg,Jessica U,001,2021-06-23_12h10.49.621,Cat face experiment_fully sample_301-600,2021.1.4,MacIntel,60.0024001
,,,,,,q,1.1434,0,205,205,205,1,205,images/flickr_cat_000285.jpg,images/pixabay_cat_002614.jpg,Jessica U,001,2021-06-23_12h10.49.621,Cat face experiment_fully sample_301-600,2021.1.4,MacIntel,60.0024001
,,,,,,p,1.6708,0,206,206,206,1,206,images/pixabay_cat_000260.jpg,images/pixabay_cat_004641.jpg,Jessica U,001,2021-06-23_12h10.49.621,Cat face experiment_fully sample_301-600,2021.1.4,MacIntel,60.0024001
,,,,,,q,2.0199,0,207,207,207,1,207,images/flickr_cat_000240.jpg,images/flickr_cat_000200.jpg,Jessica U,001,2021-06-23_12h10.49.621,Cat face experiment_fully sample_301-600,2021.1.4,MacIntel,60.0024001
,,,,,,q,2.3338,0,208,208,208,1,208,images/pixabay_cat_003638.jpg,images/pixabay_cat_000100.jpg,Jessica U,001,2021-06-23_12h10.49.621,Cat face experiment_fully sample_301-600,2021.1.4,MacIntel,60.0024001
,,,,,,q,1.6274,0,209,209,209,1,209,images/pixabay_cat_004148.jpg,images/pixabay_cat_001304.jpg,Jessica U,001,2021-06-23_12h10.49.621,Cat face experiment_fully sample_301-600,2021.1.4,MacIntel,60.0024001
,,,,,,p,2.7581,0,210,210,210,1,210,images/pixabay_cat_001265.jpg,images/pixabay_cat_002300.jpg,Jessica U,001,2021-06-23_12h10.49.621,Cat face experiment_fully sample_301-600,2021.1.4,MacIntel,60.0024001
,,,,,,q,5.0536,0,211,211,211,1,211,images/pixabay_cat_004641.jpg,images/pixabay_cat_004489.jpg,Jessica U,001,2021-06-23_12h10.49.621,Cat face experiment_fully sample_301-600,2021.1.4,MacIntel,60.0024001
,,,,,,q,1.5854,0,212,212,212,1,212,images/pixabay_cat_003228.jpg,images/pixabay_cat_003927.jpg,Jessica U,001,2021-06-23_12h10.49.621,Cat face experiment_fully sample_301-600,2021.1.4,MacIntel,60.0024001
,,,,,,p,0.8631,0,213,213,213,1,213,images/pixabay_cat_001597.jpg,images/pixabay_cat_001284.jpg,Jessica U,001,2021-06-23_12h10.49.621,Cat face experiment_fully sample_301-600,2021.1.4,MacIntel,60.0024001
,,,,,,p,0.8437,0,214,214,214,1,214,images/pixabay_cat_004292.jpg,images/pixabay_cat_001502.jpg,Jessica U,001,2021-06-23_12h10.49.621,Cat face experiment_fully sample_301-600,2021.1.4,MacIntel,60.0024001
,,,,,,q,1.2238,0,215,215,215,1,215,images/pixabay_cat_000043.jpg,images/pixabay_cat_004182.jpg,Jessica U,001,2021-06-23_12h10.49.621,Cat face experiment_fully sample_301-600,2021.1.4,MacIntel,60.0024001
,,,,,,p,1.8868,0,216,216,216,1,216,images/pixabay_cat_003186.jpg,images/pixabay_cat_001304.jpg,Jessica U,001,2021-06-23_12h10.49.621,Cat face experiment_fully sample_301-600,2021.1.4,MacIntel,60.0024001
,,,,,,q,1.1732,0,217,217,217,1,217,images/flickr_cat_000285.jpg,images/pixabay_cat_001805.jpg,Jessica U,001,2021-06-23_12h10.49.621,Cat face experiment_fully sample_301-600,2021.1.4,MacIntel,60.0024001
,,,,,,p,3.1694,0,218,218,218,1,218,images/pixabay_cat_002930.jpg,images/pixabay_cat_000883.jpg,Jessica U,001,2021-06-23_12h10.49.621,Cat face experiment_fully sample_301-600,2021.1.4,MacIntel,60.0024001
,,,,,,p,2.4902,0,219,219,219,1,219,images/pixabay_cat_003635.jpg,images/pixabay_cat_000100.jpg,Jessica U,001,2021-06-23_12h10.49.621,Cat face experiment_fully sample_301-600,2021.1.4,MacIntel,60.0024001
,,,,,,q,0.9547,0,220,220,220,1,220,images/pixabay_cat_001160.jpg,images/pixabay_cat_003312.jpg,Jessica U,001,2021-06-23_12h10.49.621,Cat face experiment_fully sample_301-600,2021.1.4,MacIntel,60.0024001
,,,,,,p,1.3133,0,221,221,221,1,221,images/pixabay_cat_003635.jpg,images/pixabay_cat_002690.jpg,Jessica U,001,2021-06-23_12h10.49.621,Cat face experiment_fully sample_301-600,2021.1.4,MacIntel,60.0024001
,,,,,,q,0.9245,0,222,222,222,1,222,images/flickr_cat_000285.jpg,images/pixabay_cat_003638.jpg,Jessica U,001,2021-06-23_12h10.49.621,Cat face experiment_fully sample_301-600,2021.1.4,MacIntel,60.0024001
,,,,,,p,0.9918,0,223,223,223,1,223,images/pixabay_cat_000100.jpg,images/pixabay_cat_000883.jpg,Jessica U,001,2021-06-23_12h10.49.621,Cat face experiment_fully sample_301-600,2021.1.4,MacIntel,60.0024001
,,,,,,p,1.5421,0,224,224,224,1,224,images/pixabay_cat_003228.jpg,images/pixabay_cat_001284.jpg,Jessica U,001,2021-06-23_12h10.49.621,Cat face experiment_fully sample_301-600,2021.1.4,MacIntel,60.0024001
,,,,,,p,0.9288,0,225,225,225,1,225,images/pixabay_cat_003228.jpg,images/pixabay_cat_000043.jpg,Jessica U,001,2021-06-23_12h10.49.621,Cat face experiment_fully sample_301-600,2021.1.4,MacIntel,60.0024001
,,,,,,q,2.086,0,226,226,226,1,226,images/pixabay_cat_004049.jpg,images/pixabay_cat_002979.jpg,Jessica U,001,2021-06-23_12h10.49.621,Cat face experiment_fully sample_301-600,2021.1.4,MacIntel,60.0024001
,,,,,,p,3.3732,0,227,227,227,1,227,images/pixabay_cat_004292.jpg,images/pixabay_cat_001862.jpg,Jessica U,001,2021-06-23_12h10.49.621,Cat face experiment_fully sample_301-600,2021.1.4,MacIntel,60.0024001
,,,,,,q,2.5535,0,228,228,228,1,228,images/pixabay_cat_001805.jpg,images/pixabay_cat_002930.jpg,Jessica U,001,2021-06-23_12h10.49.621,Cat face experiment_fully sample_301-600,2021.1.4,MacIntel,60.0024001
,,,,,,p,1.4567,0,229,229,229,1,229,images/pixabay_cat_001304.jpg,images/pixabay_cat_001805.jpg,Jessica U,001,2021-06-23_12h10.49.621,Cat face experiment_fully sample_301-600,2021.1.4,MacIntel,60.0024001
,,,,,,p,2.4575,0,230,230,230,1,230,images/pixabay_cat_002979.jpg,images/pixabay_cat_002930.jpg,Jessica U,001,2021-06-23_12h10.49.621,Cat face experiment_fully sample_301-600,2021.1.4,MacIntel,60.0024001
,,,,,,p,2.411,0,231,231,231,1,231,images/flickr_cat_000083.jpg,images/pixabay_cat_000883.jpg,Jessica U,001,2021-06-23_12h10.49.621,Cat face experiment_fully sample_301-600,2021.1.4,MacIntel,60.0024001
,,,,,,q,1.0188,0,232,232,232,1,232,images/pixabay_cat_000043.jpg,images/pixabay_cat_001265.jpg,Jessica U,001,2021-06-23_12h10.49.621,Cat face experiment_fully sample_301-600,2021.1.4,MacIntel,60.0024001
,,,,,,p,1.6264,0,233,233,233,1,233,images/pixabay_cat_004292.jpg,images/pixabay_cat_000120.jpg,Jessica U,001,2021-06-23_12h10.49.621,Cat face experiment_fully sample_301-600,2021.1.4,MacIntel,60.0024001
,,,,,,p,1.3097,0,234,234,234,1,234,images/flickr_cat_000240.jpg,images/pixabay_cat_001304.jpg,Jessica U,001,2021-06-23_12h10.49.621,Cat face experiment_fully sample_301-600,2021.1.4,MacIntel,60.0024001
,,,,,,q,6.7916,0,235,235,235,1,235,images/pixabay_cat_004292.jpg,images/flickr_cat_000206.jpg,Jessica U,001,2021-06-23_12h10.49.621,Cat face experiment_fully sample_301-600,2021.1.4,MacIntel,60.0024001
,,,,,,q,0.8558,0,236,236,236,1,236,images/pixabay_cat_001102.jpg,images/pixabay_cat_001304.jpg,Jessica U,001,2021-06-23_12h10.49.621,Cat face experiment_fully sample_301-600,2021.1.4,MacIntel,60.0024001
,,,,,,q,2.9079,0,237,237,237,1,237,images/flickr_cat_000581.jpg,images/pixabay_cat_003228.jpg,Jessica U,001,2021-06-23_12h10.49.621,Cat face experiment_fully sample_301-600,2021.1.4,MacIntel,60.0024001
,,,,,,q,1.0923,0,238,238,238,1,238,images/flickr_cat_000240.jpg,images/pixabay_cat_000100.jpg,Jessica U,001,2021-06-23_12h10.49.621,Cat face experiment_fully sample_301-600,2021.1.4,MacIntel,60.0024001
,,,,,,p,1.0755,0,239,239,239,1,239,images/pixabay_cat_003635.jpg,images/pixabay_cat_001862.jpg,Jessica U,001,2021-06-23_12h10.49.621,Cat face experiment_fully sample_301-600,2021.1.4,MacIntel,60.0024001
,,,,,,q,3.1818,0,240,240,240,1,240,images/pixabay_cat_004049.jpg,images/pixabay_cat_001178.jpg,Jessica U,001,2021-06-23_12h10.49.621,Cat face experiment_fully sample_301-600,2021.1.4,MacIntel,60.0024001
,,,,,,p,6.0274,0,241,241,241,1,241,images/pixabay_cat_003638.jpg,images/pixabay_cat_001178.jpg,Jessica U,001,2021-06-23_12h10.49.621,Cat face experiment_fully sample_301-600,2021.1.4,MacIntel,60.0024001
,,,,,,q,0.9954,0,242,242,242,1,242,images/pixabay_cat_000043.jpg,images/pixabay_cat_002930.jpg,Jessica U,001,2021-06-23_12h10.49.621,Cat face experiment_fully sample_301-600,2021.1.4,MacIntel,60.0024001
,,,,,,q,0.6315,0,243,243,243,1,243,images/pixabay_cat_001160.jpg,images/pixabay_cat_002930.jpg,Jessica U,001,2021-06-23_12h10.49.621,Cat face experiment_fully sample_301-600,2021.1.4,MacIntel,60.0024001
,,,,,,q,3.3929,0,244,244,244,1,244,images/pixabay_cat_003566.jpg,images/flickr_cat_000206.jpg,Jessica U,001,2021-06-23_12h10.49.621,Cat face experiment_fully sample_301-600,2021.1.4,MacIntel,60.0024001
,,,,,,p,1.6621,0,245,245,245,1,245,images/pixabay_cat_001597.jpg,images/pixabay_cat_004182.jpg,Jessica U,001,2021-06-23_12h10.49.621,Cat face experiment_fully sample_301-600,2021.1.4,MacIntel,60.0024001
,,,,,,q,0.7273,0,246,246,246,1,246,images/pixabay_cat_000043.jpg,images/pixabay_cat_001284.jpg,Jessica U,001,2021-06-23_12h10.49.621,Cat face experiment_fully sample_301-600,2021.1.4,MacIntel,60.0024001
,,,,,,q,1.7742,0,247,247,247,1,247,images/pixabay_cat_001502.jpg,images/pixabay_cat_004641.jpg,Jessica U,001,2021-06-23_12h10.49.621,Cat face experiment_fully sample_301-600,2021.1.4,MacIntel,60.0024001
,,,,,,p,1.0864,0,248,248,248,1,248,images/pixabay_cat_002045.jpg,images/pixabay_cat_004148.jpg,Jessica U,001,2021-06-23_12h10.49.621,Cat face experiment_fully sample_301-600,2021.1.4,MacIntel,60.0024001
,,,,,,p,1.0768,0,249,249,249,1,249,images/flickr_cat_000271.jpg,images/pixabay_cat_004148.jpg,Jessica U,001,2021-06-23_12h10.49.621,Cat face experiment_fully sample_301-600,2021.1.4,MacIntel,60.0024001
,,,,,,p,1.0898,0,250,250,250,1,250,images/pixabay_cat_003635.jpg,images/pixabay_cat_003312.jpg,Jessica U,001,2021-06-23_12h10.49.621,Cat face experiment_fully sample_301-600,2021.1.4,MacIntel,60.0024001
,,,,,,p,1.4094,0,251,251,251,1,251,images/pixabay_cat_003425.jpg,images/flickr_cat_000200.jpg,Jessica U,001,2021-06-23_12h10.49.621,Cat face experiment_fully sample_301-600,2021.1.4,MacIntel,60.0024001
,,,,,,q,0.8903,0,252,252,252,1,252,images/pixabay_cat_000120.jpg,images/pixabay_cat_001284.jpg,Jessica U,001,2021-06-23_12h10.49.621,Cat face experiment_fully sample_301-600,2021.1.4,MacIntel,60.0024001
,,,,,,p,2.3289,0,253,253,253,1,253,images/pixabay_cat_004292.jpg,images/pixabay_cat_002614.jpg,Jessica U,001,2021-06-23_12h10.49.621,Cat face experiment_fully sample_301-600,2021.1.4,MacIntel,60.0024001
,,,,,,p,0.9109,0,254,254,254,1,254,images/pixabay_cat_004489.jpg,images/pixabay_cat_000286.jpg,Jessica U,001,2021-06-23_12h10.49.621,Cat face experiment_fully sample_301-600,2021.1.4,MacIntel,60.0024001
,,,,,,q,1.29,0,255,255,255,1,255,images/pixabay_cat_001805.jpg,images/pixabay_cat_000883.jpg,Jessica U,001,2021-06-23_12h10.49.621,Cat face experiment_fully sample_301-600,2021.1.4,MacIntel,60.0024001
,,,,,,p,0.7759,0,256,256,256,1,256,images/pixabay_cat_003927.jpg,images/pixabay_cat_004182.jpg,Jessica U,001,2021-06-23_12h10.49.621,Cat face experiment_fully sample_301-600,2021.1.4,MacIntel,60.0024001
,,,,,,p,0.6962,0,257,257,257,1,257,images/flickr_cat_000022.jpg,images/pixabay_cat_000286.jpg,Jessica U,001,2021-06-23_12h10.49.621,Cat face experiment_fully sample_301-600,2021.1.4,MacIntel,60.0024001
,,,,,,q,3.2117,0,258,258,258,1,258,images/pixabay_cat_002614.jpg,images/pixabay_cat_003927.jpg,Jessica U,001,2021-06-23_12h10.49.621,Cat face experiment_fully sample_301-600,2021.1.4,MacIntel,60.0024001
,,,,,,p,2.6646,0,259,259,259,1,259,images/pixabay_cat_001304.jpg,images/pixabay_cat_003312.jpg,Jessica U,001,2021-06-23_12h10.49.621,Cat face experiment_fully sample_301-600,2021.1.4,MacIntel,60.0024001
,,,,,,q,0.9616,0,260,260,260,1,260,images/pixabay_cat_000120.jpg,images/pixabay_cat_002300.jpg,Jessica U,001,2021-06-23_12h10.49.621,Cat face experiment_fully sample_301-600,2021.1.4,MacIntel,60.0024001
,,,,,,p,1.6792,0,261,261,261,1,261,images/pixabay_cat_001265.jpg,images/pixabay_cat_000100.jpg,Jessica U,001,2021-06-23_12h10.49.621,Cat face experiment_fully sample_301-600,2021.1.4,MacIntel,60.0024001
,,,,,,p,0.8084,0,262,262,262,1,262,images/pixabay_cat_002300.jpg,images/pixabay_cat_004182.jpg,Jessica U,001,2021-06-23_12h10.49.621,Cat face experiment_fully sample_301-600,2021.1.4,MacIntel,60.0024001
,,,,,,p,2.2523,0,263,263,263,1,263,images/pixabay_cat_004292.jpg,images/pixabay_cat_002045.jpg,Jessica U,001,2021-06-23_12h10.49.621,Cat face experiment_fully sample_301-600,2021.1.4,MacIntel,60.0024001
,,,,,,q,1.8083,0,264,264,264,1,264,images/pixabay_cat_001284.jpg,images/flickr_cat_000200.jpg,Jessica U,001,2021-06-23_12h10.49.621,Cat face experiment_fully sample_301-600,2021.1.4,MacIntel,60.0024001
,,,,,,q,1.006,0,265,265,265,1,265,images/pixabay_cat_001102.jpg,images/pixabay_cat_001265.jpg,Jessica U,001,2021-06-23_12h10.49.621,Cat face experiment_fully sample_301-600,2021.1.4,MacIntel,60.0024001
,,,,,,p,1.6086,0,266,266,266,1,266,images/pixabay_cat_002979.jpg,images/pixabay_cat_004148.jpg,Jessica U,001,2021-06-23_12h10.49.621,Cat face experiment_fully sample_301-600,2021.1.4,MacIntel,60.0024001
,,,,,,p,5.4254,0,267,267,267,1,267,images/pixabay_cat_002601.jpg,images/flickr_cat_000200.jpg,Jessica U,001,2021-06-23_12h10.49.621,Cat face experiment_fully sample_301-600,2021.1.4,MacIntel,60.0024001
,,,,,,p,4.8939,0,268,268,268,1,268,images/pixabay_cat_003077.jpg,images/pixabay_cat_001206.jpg,Jessica U,001,2021-06-23_12h10.49.621,Cat face experiment_fully sample_301-600,2021.1.4,MacIntel,60.0024001
,,,,,,p,0.9525,0,269,269,269,1,269,images/flickr_cat_000266.jpg,images/pixabay_cat_001160.jpg,Jessica U,001,2021-06-23_12h10.49.621,Cat face experiment_fully sample_301-600,2021.1.4,MacIntel,60.0024001
,,,,,,p,5.2564,0,270,270,270,1,270,images/pixabay_cat_002601.jpg,images/pixabay_cat_002690.jpg,Jessica U,001,2021-06-23_12h10.49.621,Cat face experiment_fully sample_301-600,2021.1.4,MacIntel,60.0024001
,,,,,,p,1.9896,0,271,271,271,1,271,images/flickr_cat_000271.jpg,images/pixabay_cat_001304.jpg,Jessica U,001,2021-06-23_12h10.49.621,Cat face experiment_fully sample_301-600,2021.1.4,MacIntel,60.0024001
,,,,,,p,1.4416,0,272,272,272,1,272,images/flickr_cat_000266.jpg,images/pixabay_cat_003121.jpg,Jessica U,001,2021-06-23_12h10.49.621,Cat face experiment_fully sample_301-600,2021.1.4,MacIntel,60.0024001
,,,,,,p,0.9124,0,273,273,273,1,273,images/pixabay_cat_003077.jpg,images/pixabay_cat_004641.jpg,Jessica U,001,2021-06-23_12h10.49.621,Cat face experiment_fully sample_301-600,2021.1.4,MacIntel,60.0024001
,,,,,,q,1.1269,0,274,274,274,1,274,images/pixabay_cat_001502.jpg,images/pixabay_cat_003121.jpg,Jessica U,001,2021-06-23_12h10.49.621,Cat face experiment_fully sample_301-600,2021.1.4,MacIntel,60.0024001
,,,,,,p,1.0747,0,275,275,275,1,275,images/pixabay_cat_001265.jpg,images/pixabay_cat_004489.jpg,Jessica U,001,2021-06-23_12h10.49.621,Cat face experiment_fully sample_301-600,2021.1.4,MacIntel,60.0024001
,,,,,,q,1.5065,0,276,276,276,1,276,images/pixabay_cat_004641.jpg,images/pixabay_cat_003312.jpg,Jessica U,001,2021-06-23_12h10.49.621,Cat face experiment_fully sample_301-600,2021.1.4,MacIntel,60.0024001
,,,,,,p,1.9565,0,277,277,277,1,277,images/pixabay_cat_003121.jpg,images/pixabay_cat_002300.jpg,Jessica U,001,2021-06-23_12h10.49.621,Cat face experiment_fully sample_301-600,2021.1.4,MacIntel,60.0024001
,,,,,,q,0.6946,0,278,278,278,1,278,images/pixabay_cat_000043.jpg,images/pixabay_cat_002300.jpg,Jessica U,001,2021-06-23_12h10.49.621,Cat face experiment_fully sample_301-600,2021.1.4,MacIntel,60.0024001
,,,,,,q,1.142,0,279,279,279,1,279,images/flickr_cat_000285.jpg,images/pixabay_cat_001206.jpg,Jessica U,001,2021-06-23_12h10.49.621,Cat face experiment_fully sample_301-600,2021.1.4,MacIntel,60.0024001
,,,,,,p,4.6302,0,280,280,280,1,280,images/pixabay_cat_003186.jpg,images/pixabay_cat_003638.jpg,Jessica U,001,2021-06-23_12h10.49.621,Cat face experiment_fully sample_301-600,2021.1.4,MacIntel,60.0024001
,,,,,,p,1.1252,0,281,281,281,1,281,images/pixabay_cat_004489.jpg,images/pixabay_cat_002979.jpg,Jessica U,001,2021-06-23_12h10.49.621,Cat face experiment_fully sample_301-600,2021.1.4,MacIntel,60.0024001
,,,,,,q,2.9115,0,282,282,282,1,282,images/pixabay_cat_001304.jpg,images/pixabay_cat_002930.jpg,Jessica U,001,2021-06-23_12h10.49.621,Cat face experiment_fully sample_301-600,2021.1.4,MacIntel,60.0024001
,,,,,,q,1.4256,0,283,283,283,1,283,images/pixabay_cat_002690.jpg,images/flickr_cat_000240.jpg,Jessica U,001,2021-06-23_12h10.49.621,Cat face experiment_fully sample_301-600,2021.1.4,MacIntel,60.0024001
,,,,,,p,1.4731,0,284,284,284,1,284,images/pixabay_cat_003186.jpg,images/pixabay_cat_003121.jpg,Jessica U,001,2021-06-23_12h10.49.621,Cat face experiment_fully sample_301-600,2021.1.4,MacIntel,60.0024001
,,,,,,p,1.4268,0,285,285,285,1,285,images/pixabay_cat_003186.jpg,images/pixabay_cat_004182.jpg,Jessica U,001,2021-06-23_12h10.49.621,Cat face experiment_fully sample_301-600,2021.1.4,MacIntel,60.0024001
,,,,,,p,1.4234,0,286,286,286,1,286,images/pixabay_cat_001265.jpg,images/flickr_cat_000200.jpg,Jessica U,001,2021-06-23_12h10.49.621,Cat face experiment_fully sample_301-600,2021.1.4,MacIntel,60.0024001
,,,,,,p,1.1563,0,287,287,287,1,287,images/flickr_cat_000581.jpg,images/pixabay_cat_000120.jpg,Jessica U,001,2021-06-23_12h10.49.621,Cat face experiment_fully sample_301-600,2021.1.4,MacIntel,60.0024001
,,,,,,q,1.5863,0,288,288,288,1,288,images/pixabay_cat_003566.jpg,images/pixabay_cat_003927.jpg,Jessica U,001,2021-06-23_12h10.49.621,Cat face experiment_fully sample_301-600,2021.1.4,MacIntel,60.0024001
,,,,,,q,1.3223,0,289,289,289,1,289,images/pixabay_cat_002690.jpg,images/pixabay_cat_001178.jpg,Jessica U,001,2021-06-23_12h10.49.621,Cat face experiment_fully sample_301-600,2021.1.4,MacIntel,60.0024001
,,,,,,q,1.0418,0,290,290,290,1,290,images/pixabay_cat_002045.jpg,images/pixabay_cat_000100.jpg,Jessica U,001,2021-06-23_12h10.49.621,Cat face experiment_fully sample_301-600,2021.1.4,MacIntel,60.0024001
,,,,,,p,0.9415,0,291,291,291,1,291,images/pixabay_cat_004049.jpg,images/pixabay_cat_001160.jpg,Jessica U,001,2021-06-23_12h10.49.621,Cat face experiment_fully sample_301-600,2021.1.4,MacIntel,60.0024001
,,,,,,p,4.6883,0,292,292,292,1,292,images/flickr_cat_000266.jpg,images/flickr_cat_000200.jpg,Jessica U,001,2021-06-23_12h10.49.621,Cat face experiment_fully sample_301-600,2021.1.4,MacIntel,60.0024001
,,,,,,q,2.3098,0,293,293,293,1,293,images/flickr_cat_000240.jpg,images/flickr_cat_000271.jpg,Jessica U,001,2021-06-23_12h10.49.621,Cat face experiment_fully sample_301-600,2021.1.4,MacIntel,60.0024001
,,,,,,p,0.958,0,294,294,294,1,294,images/pixabay_cat_003425.jpg,images/pixabay_cat_002930.jpg,Jessica U,001,2021-06-23_12h10.49.621,Cat face experiment_fully sample_301-600,2021.1.4,MacIntel,60.0024001
,,,,,,p,2.7277,0,295,295,295,1,295,images/flickr_cat_000206.jpg,images/pixabay_cat_003121.jpg,Jessica U,001,2021-06-23_12h10.49.621,Cat face experiment_fully sample_301-600,2021.1.4,MacIntel,60.0024001
,,,,,,q,0.7905,0,296,296,296,1,296,images/pixabay_cat_000043.jpg,images/pixabay_cat_001597.jpg,Jessica U,001,2021-06-23_12h10.49.621,Cat face experiment_fully sample_301-600,2021.1.4,MacIntel,60.0024001
,,,,,,p,1.7223,0,297,297,297,1,297,images/pixabay_cat_001597.jpg,images/pixabay_cat_002614.jpg,Jessica U,001,2021-06-23_12h10.49.621,Cat face experiment_fully sample_301-600,2021.1.4,MacIntel,60.0024001
,,,,,,q,2.1072,0,298,298,298,1,298,images/pixabay_cat_000411.jpg,images/pixabay_cat_004292.jpg,Jessica U,001,2021-06-23_12h10.49.621,Cat face experiment_fully sample_301-600,2021.1.4,MacIntel,60.0024001
,,,,,,p,2.2692,0,299,299,299,1,299,images/pixabay_cat_003425.jpg,images/pixabay_cat_003186.jpg,Jessica U,001,2021-06-23_12h10.49.621,Cat face experiment_fully sample_301-600,2021.1.4,MacIntel,60.0024001
