key_resp.keys,key_resp.rt,key_resp_2.keys,key_resp_2.rt,key_resp_3.keys,key_resp_3.rt,key_resp_4.keys,key_resp_4.rt,trials.thisRepN,trials.thisTrialN,trials.thisN,trials.thisIndex,trials.ran,trail_nums,img1,img2,participant,session,date,expName,psychopyVersion,OS,frameRate
space,1.5887,space,1.3764,space,0.9751,p,3.154,0,0,0,0,1,0,images/pixabay_cat_002300.jpg,images/pixabay_cat_002930.jpg,Jessica U,001,2021-06-23_12h37.52.418,Cat face experiment_fully sample_901-1225,2021.1.4,MacIntel,60.0024001
,,,,,,q,0.9206,0,1,1,1,1,1,images/pixabay_cat_000043.jpg,images/pixabay_cat_003927.jpg,Jessica U,001,2021-06-23_12h37.52.418,Cat face experiment_fully sample_901-1225,2021.1.4,MacIntel,60.0024001
,,,,,,p,1.5519,0,2,2,2,1,2,images/pixabay_cat_003077.jpg,images/pixabay_cat_003638.jpg,Jessica U,001,2021-06-23_12h37.52.418,Cat face experiment_fully sample_901-1225,2021.1.4,MacIntel,60.0024001
,,,,,,p,1.5179,0,3,3,3,1,3,images/pixabay_cat_003927.jpg,images/pixabay_cat_003121.jpg,Jessica U,001,2021-06-23_12h37.52.418,Cat face experiment_fully sample_901-1225,2021.1.4,MacIntel,60.0024001
,,,,,,q,1.9819,0,4,4,4,1,4,images/pixabay_cat_004292.jpg,images/pixabay_cat_001597.jpg,Jessica U,001,2021-06-23_12h37.52.418,Cat face experiment_fully sample_901-1225,2021.1.4,MacIntel,60.0024001
,,,,,,q,1.5642,0,5,5,5,1,5,images/pixabay_cat_004292.jpg,images/pixabay_cat_003186.jpg,Jessica U,001,2021-06-23_12h37.52.418,Cat face experiment_fully sample_901-1225,2021.1.4,MacIntel,60.0024001
,,,,,,p,1.9017,0,6,6,6,1,6,images/pixabay_cat_001178.jpg,images/pixabay_cat_002930.jpg,Jessica U,001,2021-06-23_12h37.52.418,Cat face experiment_fully sample_901-1225,2021.1.4,MacIntel,60.0024001
,,,,,,p,5.4665,0,7,7,7,1,7,images/pixabay_cat_003228.jpg,images/pixabay_cat_001862.jpg,Jessica U,001,2021-06-23_12h37.52.418,Cat face experiment_fully sample_901-1225,2021.1.4,MacIntel,60.0024001
,,,,,,q,2.7016,0,8,8,8,1,8,images/pixabay_cat_002601.jpg,images/pixabay_cat_004182.jpg,Jessica U,001,2021-06-23_12h37.52.418,Cat face experiment_fully sample_901-1225,2021.1.4,MacIntel,60.0024001
,,,,,,q,1.1338,0,9,9,9,1,9,images/pixabay_cat_000043.jpg,images/pixabay_cat_004049.jpg,Jessica U,001,2021-06-23_12h37.52.418,Cat face experiment_fully sample_901-1225,2021.1.4,MacIntel,60.0024001
,,,,,,p,1.8669,0,10,10,10,1,10,images/pixabay_cat_003425.jpg,images/pixabay_cat_002690.jpg,Jessica U,001,2021-06-23_12h37.52.418,Cat face experiment_fully sample_901-1225,2021.1.4,MacIntel,60.0024001
,,,,,,q,1.1384,0,11,11,11,1,11,images/pixabay_cat_003927.jpg,images/pixabay_cat_003638.jpg,Jessica U,001,2021-06-23_12h37.52.418,Cat face experiment_fully sample_901-1225,2021.1.4,MacIntel,60.0024001
,,,,,,q,1.1361,0,12,12,12,1,12,images/pixabay_cat_001597.jpg,images/pixabay_cat_001206.jpg,Jessica U,001,2021-06-23_12h37.52.418,Cat face experiment_fully sample_901-1225,2021.1.4,MacIntel,60.0024001
,,,,,,q,2.8859,0,13,13,13,1,13,images/pixabay_cat_004049.jpg,images/pixabay_cat_002300.jpg,Jessica U,001,2021-06-23_12h37.52.418,Cat face experiment_fully sample_901-1225,2021.1.4,MacIntel,60.0024001
,,,,,,q,1.2821,0,14,14,14,1,14,images/pixabay_cat_004049.jpg,images/pixabay_cat_003312.jpg,Jessica U,001,2021-06-23_12h37.52.418,Cat face experiment_fully sample_901-1225,2021.1.4,MacIntel,60.0024001
,,,,,,q,1.4516,0,15,15,15,1,15,images/pixabay_cat_000411.jpg,images/pixabay_cat_003566.jpg,Jessica U,001,2021-06-23_12h37.52.418,Cat face experiment_fully sample_901-1225,2021.1.4,MacIntel,60.0024001
,,,,,,q,1.1249,0,16,16,16,1,16,images/pixabay_cat_000411.jpg,images/pixabay_cat_002614.jpg,Jessica U,001,2021-06-23_12h37.52.418,Cat face experiment_fully sample_901-1225,2021.1.4,MacIntel,60.0024001
,,,,,,q,1.8691,0,17,17,17,1,17,images/pixabay_cat_004049.jpg,images/flickr_cat_000083.jpg,Jessica U,001,2021-06-23_12h37.52.418,Cat face experiment_fully sample_901-1225,2021.1.4,MacIntel,60.0024001
,,,,,,p,1.3023,0,18,18,18,1,18,images/pixabay_cat_003425.jpg,images/pixabay_cat_003566.jpg,Jessica U,001,2021-06-23_12h37.52.418,Cat face experiment_fully sample_901-1225,2021.1.4,MacIntel,60.0024001
,,,,,,p,2.9659,0,19,19,19,1,19,images/flickr_cat_000022.jpg,images/pixabay_cat_004489.jpg,Jessica U,001,2021-06-23_12h37.52.418,Cat face experiment_fully sample_901-1225,2021.1.4,MacIntel,60.0024001
,,,,,,p,1.2714,0,20,20,20,1,20,images/pixabay_cat_000260.jpg,images/flickr_cat_000083.jpg,Jessica U,001,2021-06-23_12h37.52.418,Cat face experiment_fully sample_901-1225,2021.1.4,MacIntel,60.0024001
,,,,,,q,1.9735,0,21,21,21,1,21,images/flickr_cat_000581.jpg,images/pixabay_cat_002601.jpg,Jessica U,001,2021-06-23_12h37.52.418,Cat face experiment_fully sample_901-1225,2021.1.4,MacIntel,60.0024001
,,,,,,p,0.9985,0,22,22,22,1,22,images/pixabay_cat_003425.jpg,images/pixabay_cat_002601.jpg,Jessica U,001,2021-06-23_12h37.52.418,Cat face experiment_fully sample_901-1225,2021.1.4,MacIntel,60.0024001
,,,,,,p,2.1374,0,23,23,23,1,23,images/pixabay_cat_003566.jpg,images/flickr_cat_000022.jpg,Jessica U,001,2021-06-23_12h37.52.418,Cat face experiment_fully sample_901-1225,2021.1.4,MacIntel,60.0024001
,,,,,,p,0.9913,0,24,24,24,1,24,images/pixabay_cat_003186.jpg,images/pixabay_cat_000286.jpg,Jessica U,001,2021-06-23_12h37.52.418,Cat face experiment_fully sample_901-1225,2021.1.4,MacIntel,60.0024001
,,,,,,p,1.5857,0,25,25,25,1,25,images/pixabay_cat_003635.jpg,images/pixabay_cat_002979.jpg,Jessica U,001,2021-06-23_12h37.52.418,Cat face experiment_fully sample_901-1225,2021.1.4,MacIntel,60.0024001
,,,,,,p,1.7057,0,26,26,26,1,26,images/flickr_cat_000083.jpg,images/pixabay_cat_004148.jpg,Jessica U,001,2021-06-23_12h37.52.418,Cat face experiment_fully sample_901-1225,2021.1.4,MacIntel,60.0024001
,,,,,,p,0.8847,0,27,27,27,1,27,images/pixabay_cat_003228.jpg,images/pixabay_cat_001160.jpg,Jessica U,001,2021-06-23_12h37.52.418,Cat face experiment_fully sample_901-1225,2021.1.4,MacIntel,60.0024001
,,,,,,q,1.0023,0,28,28,28,1,28,images/pixabay_cat_000120.jpg,images/pixabay_cat_001178.jpg,Jessica U,001,2021-06-23_12h37.52.418,Cat face experiment_fully sample_901-1225,2021.1.4,MacIntel,60.0024001
,,,,,,q,2.0332,0,29,29,29,1,29,images/flickr_cat_000266.jpg,images/pixabay_cat_000100.jpg,Jessica U,001,2021-06-23_12h37.52.418,Cat face experiment_fully sample_901-1225,2021.1.4,MacIntel,60.0024001
,,,,,,q,0.919,0,30,30,30,1,30,images/pixabay_cat_000120.jpg,images/pixabay_cat_002614.jpg,Jessica U,001,2021-06-23_12h37.52.418,Cat face experiment_fully sample_901-1225,2021.1.4,MacIntel,60.0024001
,,,,,,q,2.1206,0,31,31,31,1,31,images/pixabay_cat_002930.jpg,images/pixabay_cat_000100.jpg,Jessica U,001,2021-06-23_12h37.52.418,Cat face experiment_fully sample_901-1225,2021.1.4,MacIntel,60.0024001
,,,,,,q,1.2195,0,32,32,32,1,32,images/flickr_cat_000240.jpg,images/pixabay_cat_001206.jpg,Jessica U,001,2021-06-23_12h37.52.418,Cat face experiment_fully sample_901-1225,2021.1.4,MacIntel,60.0024001
,,,,,,p,1.1877,0,33,33,33,1,33,images/flickr_cat_000271.jpg,images/pixabay_cat_004182.jpg,Jessica U,001,2021-06-23_12h37.52.418,Cat face experiment_fully sample_901-1225,2021.1.4,MacIntel,60.0024001
,,,,,,q,1.8525,0,34,34,34,1,34,images/flickr_cat_000581.jpg,images/pixabay_cat_003566.jpg,Jessica U,001,2021-06-23_12h37.52.418,Cat face experiment_fully sample_901-1225,2021.1.4,MacIntel,60.0024001
,,,,,,q,1.0253,0,35,35,35,1,35,images/pixabay_cat_002045.jpg,images/pixabay_cat_003312.jpg,Jessica U,001,2021-06-23_12h37.52.418,Cat face experiment_fully sample_901-1225,2021.1.4,MacIntel,60.0024001
,,,,,,p,1.4528,0,36,36,36,1,36,images/pixabay_cat_001265.jpg,images/pixabay_cat_000120.jpg,Jessica U,001,2021-06-23_12h37.52.418,Cat face experiment_fully sample_901-1225,2021.1.4,MacIntel,60.0024001
,,,,,,p,2.6216,0,37,37,37,1,37,images/pixabay_cat_001502.jpg,images/pixabay_cat_002045.jpg,Jessica U,001,2021-06-23_12h37.52.418,Cat face experiment_fully sample_901-1225,2021.1.4,MacIntel,60.0024001
,,,,,,p,2.3408,0,38,38,38,1,38,images/pixabay_cat_003635.jpg,images/pixabay_cat_001597.jpg,Jessica U,001,2021-06-23_12h37.52.418,Cat face experiment_fully sample_901-1225,2021.1.4,MacIntel,60.0024001
,,,,,,p,5.6123,0,39,39,39,1,39,images/pixabay_cat_003186.jpg,images/pixabay_cat_001597.jpg,Jessica U,001,2021-06-23_12h37.52.418,Cat face experiment_fully sample_901-1225,2021.1.4,MacIntel,60.0024001
,,,,,,q,1.6758,0,40,40,40,1,40,images/pixabay_cat_001502.jpg,images/flickr_cat_000271.jpg,Jessica U,001,2021-06-23_12h37.52.418,Cat face experiment_fully sample_901-1225,2021.1.4,MacIntel,60.0024001
,,,,,,p,2.1076,0,41,41,41,1,41,images/pixabay_cat_001206.jpg,images/pixabay_cat_000100.jpg,Jessica U,001,2021-06-23_12h37.52.418,Cat face experiment_fully sample_901-1225,2021.1.4,MacIntel,60.0024001
,,,,,,q,1.085,0,42,42,42,1,42,images/flickr_cat_000581.jpg,images/flickr_cat_000206.jpg,Jessica U,001,2021-06-23_12h37.52.418,Cat face experiment_fully sample_901-1225,2021.1.4,MacIntel,60.0024001
,,,,,,q,2.5189,0,43,43,43,1,43,images/pixabay_cat_001502.jpg,images/flickr_cat_000240.jpg,Jessica U,001,2021-06-23_12h37.52.418,Cat face experiment_fully sample_901-1225,2021.1.4,MacIntel,60.0024001
,,,,,,q,1.0362,0,44,44,44,1,44,images/pixabay_cat_001102.jpg,images/pixabay_cat_004148.jpg,Jessica U,001,2021-06-23_12h37.52.418,Cat face experiment_fully sample_901-1225,2021.1.4,MacIntel,60.0024001
,,,,,,p,1.8893,0,45,45,45,1,45,images/pixabay_cat_003077.jpg,images/pixabay_cat_004489.jpg,Jessica U,001,2021-06-23_12h37.52.418,Cat face experiment_fully sample_901-1225,2021.1.4,MacIntel,60.0024001
,,,,,,q,1.4765,0,46,46,46,1,46,images/pixabay_cat_004489.jpg,images/pixabay_cat_003638.jpg,Jessica U,001,2021-06-23_12h37.52.418,Cat face experiment_fully sample_901-1225,2021.1.4,MacIntel,60.0024001
,,,,,,p,1.3238,0,47,47,47,1,47,images/pixabay_cat_003635.jpg,images/flickr_cat_000022.jpg,Jessica U,001,2021-06-23_12h37.52.418,Cat face experiment_fully sample_901-1225,2021.1.4,MacIntel,60.0024001
,,,,,,q,1.5751,0,48,48,48,1,48,images/pixabay_cat_000260.jpg,images/pixabay_cat_003425.jpg,Jessica U,001,2021-06-23_12h37.52.418,Cat face experiment_fully sample_901-1225,2021.1.4,MacIntel,60.0024001
,,,,,,q,4.7572,0,49,49,49,1,49,images/pixabay_cat_002614.jpg,images/pixabay_cat_001206.jpg,Jessica U,001,2021-06-23_12h37.52.418,Cat face experiment_fully sample_901-1225,2021.1.4,MacIntel,60.0024001
,,,,,,p,1.2601,0,50,50,50,1,50,images/pixabay_cat_003927.jpg,images/pixabay_cat_000883.jpg,Jessica U,001,2021-06-23_12h37.52.418,Cat face experiment_fully sample_901-1225,2021.1.4,MacIntel,60.0024001
,,,,,,p,2.6599,0,51,51,51,1,51,images/flickr_cat_000206.jpg,images/flickr_cat_000271.jpg,Jessica U,001,2021-06-23_12h37.52.418,Cat face experiment_fully sample_901-1225,2021.1.4,MacIntel,60.0024001
,,,,,,q,1.1408,0,52,52,52,1,52,images/pixabay_cat_000120.jpg,images/pixabay_cat_001862.jpg,Jessica U,001,2021-06-23_12h37.52.418,Cat face experiment_fully sample_901-1225,2021.1.4,MacIntel,60.0024001
,,,,,,q,2.0804,0,53,53,53,1,53,images/pixabay_cat_004049.jpg,images/pixabay_cat_000100.jpg,Jessica U,001,2021-06-23_12h37.52.418,Cat face experiment_fully sample_901-1225,2021.1.4,MacIntel,60.0024001
,,,,,,q,2.4733,0,54,54,54,1,54,images/pixabay_cat_001102.jpg,images/pixabay_cat_002614.jpg,Jessica U,001,2021-06-23_12h37.52.418,Cat face experiment_fully sample_901-1225,2021.1.4,MacIntel,60.0024001
,,,,,,q,1.6555,0,55,55,55,1,55,images/pixabay_cat_004292.jpg,images/pixabay_cat_000100.jpg,Jessica U,001,2021-06-23_12h37.52.418,Cat face experiment_fully sample_901-1225,2021.1.4,MacIntel,60.0024001
,,,,,,q,1.4083,0,56,56,56,1,56,images/pixabay_cat_000411.jpg,images/pixabay_cat_004641.jpg,Jessica U,001,2021-06-23_12h37.52.418,Cat face experiment_fully sample_901-1225,2021.1.4,MacIntel,60.0024001
,,,,,,q,2.0814,0,57,57,57,1,57,images/flickr_cat_000022.jpg,images/pixabay_cat_001284.jpg,Jessica U,001,2021-06-23_12h37.52.418,Cat face experiment_fully sample_901-1225,2021.1.4,MacIntel,60.0024001
,,,,,,p,1.3231,0,58,58,58,1,58,images/pixabay_cat_003077.jpg,images/pixabay_cat_001862.jpg,Jessica U,001,2021-06-23_12h37.52.418,Cat face experiment_fully sample_901-1225,2021.1.4,MacIntel,60.0024001
,,,,,,q,1.269,0,59,59,59,1,59,images/pixabay_cat_000411.jpg,images/pixabay_cat_002690.jpg,Jessica U,001,2021-06-23_12h37.52.418,Cat face experiment_fully sample_901-1225,2021.1.4,MacIntel,60.0024001
,,,,,,q,5.4076,0,60,60,60,1,60,images/flickr_cat_000083.jpg,images/pixabay_cat_002614.jpg,Jessica U,001,2021-06-23_12h37.52.418,Cat face experiment_fully sample_901-1225,2021.1.4,MacIntel,60.0024001
,,,,,,q,1.9526,0,61,61,61,1,61,images/pixabay_cat_002045.jpg,images/flickr_cat_000285.jpg,Jessica U,001,2021-06-23_12h37.52.418,Cat face experiment_fully sample_901-1225,2021.1.4,MacIntel,60.0024001
,,,,,,p,1.1744,0,62,62,62,1,62,images/pixabay_cat_000411.jpg,images/pixabay_cat_000883.jpg,Jessica U,001,2021-06-23_12h37.52.418,Cat face experiment_fully sample_901-1225,2021.1.4,MacIntel,60.0024001
,,,,,,q,1.5895,0,63,63,63,1,63,images/pixabay_cat_001805.jpg,images/flickr_cat_000200.jpg,Jessica U,001,2021-06-23_12h37.52.418,Cat face experiment_fully sample_901-1225,2021.1.4,MacIntel,60.0024001
,,,,,,q,2.2767,0,64,64,64,1,64,images/flickr_cat_000581.jpg,images/flickr_cat_000022.jpg,Jessica U,001,2021-06-23_12h37.52.418,Cat face experiment_fully sample_901-1225,2021.1.4,MacIntel,60.0024001
,,,,,,q,1.5396,0,65,65,65,1,65,images/pixabay_cat_003228.jpg,images/pixabay_cat_003566.jpg,Jessica U,001,2021-06-23_12h37.52.418,Cat face experiment_fully sample_901-1225,2021.1.4,MacIntel,60.0024001
,,,,,,p,1.3365,0,66,66,66,1,66,images/flickr_cat_000206.jpg,images/flickr_cat_000200.jpg,Jessica U,001,2021-06-23_12h37.52.418,Cat face experiment_fully sample_901-1225,2021.1.4,MacIntel,60.0024001
,,,,,,q,1.0079,0,67,67,67,1,67,images/pixabay_cat_000043.jpg,images/pixabay_cat_003121.jpg,Jessica U,001,2021-06-23_12h37.52.418,Cat face experiment_fully sample_901-1225,2021.1.4,MacIntel,60.0024001
,,,,,,p,5.2744,0,68,68,68,1,68,images/flickr_cat_000083.jpg,images/pixabay_cat_002930.jpg,Jessica U,001,2021-06-23_12h37.52.418,Cat face experiment_fully sample_901-1225,2021.1.4,MacIntel,60.0024001
,,,,,,p,1.424,0,69,69,69,1,69,images/flickr_cat_000240.jpg,images/pixabay_cat_001862.jpg,Jessica U,001,2021-06-23_12h37.52.418,Cat face experiment_fully sample_901-1225,2021.1.4,MacIntel,60.0024001
,,,,,,p,4.4672,0,70,70,70,1,70,images/flickr_cat_000266.jpg,images/pixabay_cat_002300.jpg,Jessica U,001,2021-06-23_12h37.52.418,Cat face experiment_fully sample_901-1225,2021.1.4,MacIntel,60.0024001
,,,,,,p,3.5563,0,71,71,71,1,71,images/pixabay_cat_002690.jpg,images/pixabay_cat_003927.jpg,Jessica U,001,2021-06-23_12h37.52.418,Cat face experiment_fully sample_901-1225,2021.1.4,MacIntel,60.0024001
,,,,,,q,1.3529,0,72,72,72,1,72,images/pixabay_cat_003228.jpg,images/pixabay_cat_002979.jpg,Jessica U,001,2021-06-23_12h37.52.418,Cat face experiment_fully sample_901-1225,2021.1.4,MacIntel,60.0024001
,,,,,,p,2.9406,0,73,73,73,1,73,images/pixabay_cat_001206.jpg,images/pixabay_cat_001178.jpg,Jessica U,001,2021-06-23_12h37.52.418,Cat face experiment_fully sample_901-1225,2021.1.4,MacIntel,60.0024001
,,,,,,q,1.6735,0,74,74,74,1,74,images/pixabay_cat_002601.jpg,images/pixabay_cat_001597.jpg,Jessica U,001,2021-06-23_12h37.52.418,Cat face experiment_fully sample_901-1225,2021.1.4,MacIntel,60.0024001
,,,,,,p,1.173,0,75,75,75,1,75,images/pixabay_cat_003635.jpg,images/pixabay_cat_002930.jpg,Jessica U,001,2021-06-23_12h37.52.418,Cat face experiment_fully sample_901-1225,2021.1.4,MacIntel,60.0024001
,,,,,,p,1.0203,0,76,76,76,1,76,images/flickr_cat_000083.jpg,images/flickr_cat_000271.jpg,Jessica U,001,2021-06-23_12h37.52.418,Cat face experiment_fully sample_901-1225,2021.1.4,MacIntel,60.0024001
,,,,,,p,1.9733,0,77,77,77,1,77,images/pixabay_cat_004292.jpg,images/pixabay_cat_004148.jpg,Jessica U,001,2021-06-23_12h37.52.418,Cat face experiment_fully sample_901-1225,2021.1.4,MacIntel,60.0024001
,,,,,,p,1.2567,0,78,78,78,1,78,images/pixabay_cat_002690.jpg,images/pixabay_cat_003121.jpg,Jessica U,001,2021-06-23_12h37.52.418,Cat face experiment_fully sample_901-1225,2021.1.4,MacIntel,60.0024001
,,,,,,p,2.6749,0,79,79,79,1,79,images/pixabay_cat_000260.jpg,images/pixabay_cat_002930.jpg,Jessica U,001,2021-06-23_12h37.52.418,Cat face experiment_fully sample_901-1225,2021.1.4,MacIntel,60.0024001
,,,,,,q,1.4936,0,80,80,80,1,80,images/pixabay_cat_002690.jpg,images/pixabay_cat_001597.jpg,Jessica U,001,2021-06-23_12h37.52.418,Cat face experiment_fully sample_901-1225,2021.1.4,MacIntel,60.0024001
,,,,,,p,1.0106,0,81,81,81,1,81,images/pixabay_cat_002690.jpg,images/pixabay_cat_001284.jpg,Jessica U,001,2021-06-23_12h37.52.418,Cat face experiment_fully sample_901-1225,2021.1.4,MacIntel,60.0024001
,,,,,,p,1.0742,0,82,82,82,1,82,images/pixabay_cat_004292.jpg,images/flickr_cat_000271.jpg,Jessica U,001,2021-06-23_12h37.52.418,Cat face experiment_fully sample_901-1225,2021.1.4,MacIntel,60.0024001
,,,,,,p,4.1461,0,83,83,83,1,83,images/pixabay_cat_002601.jpg,images/pixabay_cat_003927.jpg,Jessica U,001,2021-06-23_12h37.52.418,Cat face experiment_fully sample_901-1225,2021.1.4,MacIntel,60.0024001
,,,,,,p,0.9023,0,84,84,84,1,84,images/flickr_cat_000240.jpg,images/pixabay_cat_000286.jpg,Jessica U,001,2021-06-23_12h37.52.418,Cat face experiment_fully sample_901-1225,2021.1.4,MacIntel,60.0024001
,,,,,,p,1.4758,0,85,85,85,1,85,images/pixabay_cat_004489.jpg,images/flickr_cat_000271.jpg,Jessica U,001,2021-06-23_12h37.52.418,Cat face experiment_fully sample_901-1225,2021.1.4,MacIntel,60.0024001
,,,,,,p,1.0593,0,86,86,86,1,86,images/pixabay_cat_003077.jpg,images/pixabay_cat_000120.jpg,Jessica U,001,2021-06-23_12h37.52.418,Cat face experiment_fully sample_901-1225,2021.1.4,MacIntel,60.0024001
,,,,,,p,0.7341,0,87,87,87,1,87,images/pixabay_cat_003077.jpg,images/pixabay_cat_000286.jpg,Jessica U,001,2021-06-23_12h37.52.418,Cat face experiment_fully sample_901-1225,2021.1.4,MacIntel,60.0024001
,,,,,,p,5.1904,0,88,88,88,1,88,images/flickr_cat_000581.jpg,images/flickr_cat_000285.jpg,Jessica U,001,2021-06-23_12h37.52.418,Cat face experiment_fully sample_901-1225,2021.1.4,MacIntel,60.0024001
,,,,,,p,10.6857,0,89,89,89,1,89,images/pixabay_cat_003425.jpg,images/pixabay_cat_003638.jpg,Jessica U,001,2021-06-23_12h37.52.418,Cat face experiment_fully sample_901-1225,2021.1.4,MacIntel,60.0024001
,,,,,,q,1.2709,0,90,90,90,1,90,images/flickr_cat_000581.jpg,images/pixabay_cat_003121.jpg,Jessica U,001,2021-06-23_12h37.52.418,Cat face experiment_fully sample_901-1225,2021.1.4,MacIntel,60.0024001
,,,,,,q,1.0357,0,91,91,91,1,91,images/pixabay_cat_001304.jpg,images/pixabay_cat_000100.jpg,Jessica U,001,2021-06-23_12h37.52.418,Cat face experiment_fully sample_901-1225,2021.1.4,MacIntel,60.0024001
,,,,,,p,1.0688,0,92,92,92,1,92,images/pixabay_cat_001502.jpg,images/pixabay_cat_000043.jpg,Jessica U,001,2021-06-23_12h37.52.418,Cat face experiment_fully sample_901-1225,2021.1.4,MacIntel,60.0024001
,,,,,,q,1.3789,0,93,93,93,1,93,images/pixabay_cat_004489.jpg,images/pixabay_cat_002300.jpg,Jessica U,001,2021-06-23_12h37.52.418,Cat face experiment_fully sample_901-1225,2021.1.4,MacIntel,60.0024001
,,,,,,p,0.8602,0,94,94,94,1,94,images/pixabay_cat_001206.jpg,images/pixabay_cat_004148.jpg,Jessica U,001,2021-06-23_12h37.52.418,Cat face experiment_fully sample_901-1225,2021.1.4,MacIntel,60.0024001
,,,,,,q,2.1734,0,95,95,95,1,95,images/pixabay_cat_002601.jpg,images/pixabay_cat_003121.jpg,Jessica U,001,2021-06-23_12h37.52.418,Cat face experiment_fully sample_901-1225,2021.1.4,MacIntel,60.0024001
,,,,,,p,1.9249,0,96,96,96,1,96,images/pixabay_cat_004292.jpg,images/flickr_cat_000083.jpg,Jessica U,001,2021-06-23_12h37.52.418,Cat face experiment_fully sample_901-1225,2021.1.4,MacIntel,60.0024001
,,,,,,p,1.5118,0,97,97,97,1,97,images/pixabay_cat_001102.jpg,images/pixabay_cat_000120.jpg,Jessica U,001,2021-06-23_12h37.52.418,Cat face experiment_fully sample_901-1225,2021.1.4,MacIntel,60.0024001
,,,,,,q,1.6453,0,98,98,98,1,98,images/pixabay_cat_000411.jpg,images/pixabay_cat_003312.jpg,Jessica U,001,2021-06-23_12h37.52.418,Cat face experiment_fully sample_901-1225,2021.1.4,MacIntel,60.0024001
,,,,,,p,0.8777,0,99,99,99,1,99,images/pixabay_cat_001206.jpg,images/pixabay_cat_003312.jpg,Jessica U,001,2021-06-23_12h37.52.418,Cat face experiment_fully sample_901-1225,2021.1.4,MacIntel,60.0024001
,,,,,,q,1.0405,0,100,100,100,1,100,images/flickr_cat_000581.jpg,images/flickr_cat_000266.jpg,Jessica U,001,2021-06-23_12h37.52.418,Cat face experiment_fully sample_901-1225,2021.1.4,MacIntel,60.0024001
,,,,,,p,1.1026,0,101,101,101,1,101,images/pixabay_cat_001265.jpg,images/pixabay_cat_001862.jpg,Jessica U,001,2021-06-23_12h37.52.418,Cat face experiment_fully sample_901-1225,2021.1.4,MacIntel,60.0024001
,,,,,,q,1.3905,0,102,102,102,1,102,images/pixabay_cat_002690.jpg,images/pixabay_cat_001265.jpg,Jessica U,001,2021-06-23_12h37.52.418,Cat face experiment_fully sample_901-1225,2021.1.4,MacIntel,60.0024001
,,,,,,p,0.9622,0,103,103,103,1,103,images/pixabay_cat_002690.jpg,images/pixabay_cat_001862.jpg,Jessica U,001,2021-06-23_12h37.52.418,Cat face experiment_fully sample_901-1225,2021.1.4,MacIntel,60.0024001
,,,,,,q,1.6402,0,104,104,104,1,104,images/flickr_cat_000581.jpg,images/pixabay_cat_002930.jpg,Jessica U,001,2021-06-23_12h37.52.418,Cat face experiment_fully sample_901-1225,2021.1.4,MacIntel,60.0024001
,,,,,,q,3.0968,0,105,105,105,1,105,images/pixabay_cat_003566.jpg,images/pixabay_cat_002614.jpg,Jessica U,001,2021-06-23_12h37.52.418,Cat face experiment_fully sample_901-1225,2021.1.4,MacIntel,60.0024001
,,,,,,q,1.5613,0,106,106,106,1,106,images/flickr_cat_000206.jpg,images/pixabay_cat_001206.jpg,Jessica U,001,2021-06-23_12h37.52.418,Cat face experiment_fully sample_901-1225,2021.1.4,MacIntel,60.0024001
,,,,,,p,0.9774,0,107,107,107,1,107,images/pixabay_cat_001597.jpg,images/pixabay_cat_002045.jpg,Jessica U,001,2021-06-23_12h37.52.418,Cat face experiment_fully sample_901-1225,2021.1.4,MacIntel,60.0024001
,,,,,,q,2.0238,0,108,108,108,1,108,images/flickr_cat_000083.jpg,images/pixabay_cat_001206.jpg,Jessica U,001,2021-06-23_12h37.52.418,Cat face experiment_fully sample_901-1225,2021.1.4,MacIntel,60.0024001
,,,,,,p,0.9749,0,109,109,109,1,109,images/pixabay_cat_002979.jpg,images/pixabay_cat_000286.jpg,Jessica U,001,2021-06-23_12h37.52.418,Cat face experiment_fully sample_901-1225,2021.1.4,MacIntel,60.0024001
,,,,,,p,1.7291,0,110,110,110,1,110,images/pixabay_cat_003077.jpg,images/pixabay_cat_002300.jpg,Jessica U,001,2021-06-23_12h37.52.418,Cat face experiment_fully sample_901-1225,2021.1.4,MacIntel,60.0024001
,,,,,,q,1.2286,0,111,111,111,1,111,images/pixabay_cat_004049.jpg,images/pixabay_cat_002930.jpg,Jessica U,001,2021-06-23_12h37.52.418,Cat face experiment_fully sample_901-1225,2021.1.4,MacIntel,60.0024001
,,,,,,q,0.7732,0,112,112,112,1,112,images/flickr_cat_000285.jpg,images/pixabay_cat_002300.jpg,Jessica U,001,2021-06-23_12h37.52.418,Cat face experiment_fully sample_901-1225,2021.1.4,MacIntel,60.0024001
,,,,,,p,1.3747,0,113,113,113,1,113,images/pixabay_cat_003635.jpg,images/pixabay_cat_003566.jpg,Jessica U,001,2021-06-23_12h37.52.418,Cat face experiment_fully sample_901-1225,2021.1.4,MacIntel,60.0024001
,,,,,,q,1.3277,0,114,114,114,1,114,images/pixabay_cat_003228.jpg,images/pixabay_cat_004049.jpg,Jessica U,001,2021-06-23_12h37.52.418,Cat face experiment_fully sample_901-1225,2021.1.4,MacIntel,60.0024001
,,,,,,q,2.3274,0,115,115,115,1,115,images/flickr_cat_000581.jpg,images/pixabay_cat_002045.jpg,Jessica U,001,2021-06-23_12h37.52.418,Cat face experiment_fully sample_901-1225,2021.1.4,MacIntel,60.0024001
,,,,,,p,0.711,0,116,116,116,1,116,images/pixabay_cat_001178.jpg,images/pixabay_cat_000286.jpg,Jessica U,001,2021-06-23_12h37.52.418,Cat face experiment_fully sample_901-1225,2021.1.4,MacIntel,60.0024001
,,,,,,p,1.9448,0,117,117,117,1,117,images/pixabay_cat_003425.jpg,images/pixabay_cat_003927.jpg,Jessica U,001,2021-06-23_12h37.52.418,Cat face experiment_fully sample_901-1225,2021.1.4,MacIntel,60.0024001
,,,,,,p,1.363,0,118,118,118,1,118,images/pixabay_cat_002601.jpg,images/pixabay_cat_000120.jpg,Jessica U,001,2021-06-23_12h37.52.418,Cat face experiment_fully sample_901-1225,2021.1.4,MacIntel,60.0024001
,,,,,,p,1.1412,0,119,119,119,1,119,images/pixabay_cat_003635.jpg,images/pixabay_cat_003927.jpg,Jessica U,001,2021-06-23_12h37.52.418,Cat face experiment_fully sample_901-1225,2021.1.4,MacIntel,60.0024001
,,,,,,q,1.6579,0,120,120,120,1,120,images/pixabay_cat_002045.jpg,images/pixabay_cat_001304.jpg,Jessica U,001,2021-06-23_12h37.52.418,Cat face experiment_fully sample_901-1225,2021.1.4,MacIntel,60.0024001
,,,,,,q,2.5569,0,121,121,121,1,121,images/pixabay_cat_003566.jpg,images/pixabay_cat_000100.jpg,Jessica U,001,2021-06-23_12h37.52.418,Cat face experiment_fully sample_901-1225,2021.1.4,MacIntel,60.0024001
,,,,,,p,1.2227,0,122,122,122,1,122,images/pixabay_cat_003077.jpg,images/pixabay_cat_003121.jpg,Jessica U,001,2021-06-23_12h37.52.418,Cat face experiment_fully sample_901-1225,2021.1.4,MacIntel,60.0024001
,,,,,,q,6.2223,0,123,123,123,1,123,images/flickr_cat_000022.jpg,images/pixabay_cat_001206.jpg,Jessica U,001,2021-06-23_12h37.52.418,Cat face experiment_fully sample_901-1225,2021.1.4,MacIntel,60.0024001
,,,,,,p,1.5039,0,124,124,124,1,124,images/flickr_cat_000266.jpg,images/pixabay_cat_001284.jpg,Jessica U,001,2021-06-23_12h37.52.418,Cat face experiment_fully sample_901-1225,2021.1.4,MacIntel,60.0024001
,,,,,,q,1.5981,0,125,125,125,1,125,images/pixabay_cat_002979.jpg,images/pixabay_cat_003121.jpg,Jessica U,001,2021-06-23_12h37.52.418,Cat face experiment_fully sample_901-1225,2021.1.4,MacIntel,60.0024001
,,,,,,p,0.8634,0,126,126,126,1,126,images/pixabay_cat_003425.jpg,images/flickr_cat_000083.jpg,Jessica U,001,2021-06-23_12h37.52.418,Cat face experiment_fully sample_901-1225,2021.1.4,MacIntel,60.0024001
,,,,,,p,5.0113,0,127,127,127,1,127,images/pixabay_cat_003425.jpg,images/pixabay_cat_001206.jpg,Jessica U,001,2021-06-23_12h37.52.418,Cat face experiment_fully sample_901-1225,2021.1.4,MacIntel,60.0024001
,,,,,,p,0.9188,0,128,128,128,1,128,images/pixabay_cat_003635.jpg,images/flickr_cat_000200.jpg,Jessica U,001,2021-06-23_12h37.52.418,Cat face experiment_fully sample_901-1225,2021.1.4,MacIntel,60.0024001
,,,,,,q,1.1614,0,129,129,129,1,129,images/pixabay_cat_001502.jpg,images/pixabay_cat_001206.jpg,Jessica U,001,2021-06-23_12h37.52.418,Cat face experiment_fully sample_901-1225,2021.1.4,MacIntel,60.0024001
,,,,,,q,2.6279,0,130,130,130,1,130,images/pixabay_cat_004292.jpg,images/pixabay_cat_003638.jpg,Jessica U,001,2021-06-23_12h37.52.418,Cat face experiment_fully sample_901-1225,2021.1.4,MacIntel,60.0024001
,,,,,,q,0.8404,0,131,131,131,1,131,images/flickr_cat_000581.jpg,images/pixabay_cat_001284.jpg,Jessica U,001,2021-06-23_12h37.52.418,Cat face experiment_fully sample_901-1225,2021.1.4,MacIntel,60.0024001
,,,,,,q,0.9976,0,132,132,132,1,132,images/pixabay_cat_000043.jpg,images/pixabay_cat_000100.jpg,Jessica U,001,2021-06-23_12h37.52.418,Cat face experiment_fully sample_901-1225,2021.1.4,MacIntel,60.0024001
,,,,,,p,1.2624,0,133,133,133,1,133,images/flickr_cat_000083.jpg,images/pixabay_cat_001862.jpg,Jessica U,001,2021-06-23_12h37.52.418,Cat face experiment_fully sample_901-1225,2021.1.4,MacIntel,60.0024001
,,,,,,q,6.456,0,134,134,134,1,134,images/pixabay_cat_001284.jpg,images/pixabay_cat_000883.jpg,Jessica U,001,2021-06-23_12h37.52.418,Cat face experiment_fully sample_901-1225,2021.1.4,MacIntel,60.0024001
,,,,,,p,1.03,0,135,135,135,1,135,images/pixabay_cat_001265.jpg,images/pixabay_cat_004148.jpg,Jessica U,001,2021-06-23_12h37.52.418,Cat face experiment_fully sample_901-1225,2021.1.4,MacIntel,60.0024001
,,,,,,p,1.5122,0,136,136,136,1,136,images/pixabay_cat_000260.jpg,images/flickr_cat_000266.jpg,Jessica U,001,2021-06-23_12h37.52.418,Cat face experiment_fully sample_901-1225,2021.1.4,MacIntel,60.0024001
,,,,,,p,1.0441,0,137,137,137,1,137,images/flickr_cat_000266.jpg,images/pixabay_cat_004148.jpg,Jessica U,001,2021-06-23_12h37.52.418,Cat face experiment_fully sample_901-1225,2021.1.4,MacIntel,60.0024001
,,,,,,q,1.0406,0,138,138,138,1,138,images/pixabay_cat_001102.jpg,images/pixabay_cat_003312.jpg,Jessica U,001,2021-06-23_12h37.52.418,Cat face experiment_fully sample_901-1225,2021.1.4,MacIntel,60.0024001
,,,,,,p,1.1696,0,139,139,139,1,139,images/flickr_cat_000285.jpg,images/pixabay_cat_001160.jpg,Jessica U,001,2021-06-23_12h37.52.418,Cat face experiment_fully sample_901-1225,2021.1.4,MacIntel,60.0024001
,,,,,,p,1.3694,0,140,140,140,1,140,images/flickr_cat_000022.jpg,images/pixabay_cat_000883.jpg,Jessica U,001,2021-06-23_12h37.52.418,Cat face experiment_fully sample_901-1225,2021.1.4,MacIntel,60.0024001
,,,,,,p,0.6617,0,141,141,141,1,141,images/pixabay_cat_003635.jpg,images/pixabay_cat_000883.jpg,Jessica U,001,2021-06-23_12h37.52.418,Cat face experiment_fully sample_901-1225,2021.1.4,MacIntel,60.0024001
,,,,,,q,1.4369,0,142,142,142,1,142,images/flickr_cat_000022.jpg,images/flickr_cat_000206.jpg,Jessica U,001,2021-06-23_12h37.52.418,Cat face experiment_fully sample_901-1225,2021.1.4,MacIntel,60.0024001
,,,,,,q,2.1729,0,143,143,143,1,143,images/pixabay_cat_001102.jpg,images/flickr_cat_000022.jpg,Jessica U,001,2021-06-23_12h37.52.418,Cat face experiment_fully sample_901-1225,2021.1.4,MacIntel,60.0024001
,,,,,,p,1.5087,0,144,144,144,1,144,images/pixabay_cat_003228.jpg,images/pixabay_cat_000286.jpg,Jessica U,001,2021-06-23_12h37.52.418,Cat face experiment_fully sample_901-1225,2021.1.4,MacIntel,60.0024001
,,,,,,q,10.2774,0,145,145,145,1,145,images/pixabay_cat_000411.jpg,images/pixabay_cat_002300.jpg,Jessica U,001,2021-06-23_12h37.52.418,Cat face experiment_fully sample_901-1225,2021.1.4,MacIntel,60.0024001
,,,,,,q,1.1396,0,146,146,146,1,146,images/pixabay_cat_002690.jpg,images/flickr_cat_000271.jpg,Jessica U,001,2021-06-23_12h37.52.418,Cat face experiment_fully sample_901-1225,2021.1.4,MacIntel,60.0024001
,,,,,,q,0.7433,0,147,147,147,1,147,images/pixabay_cat_000120.jpg,images/pixabay_cat_004049.jpg,Jessica U,001,2021-06-23_12h37.52.418,Cat face experiment_fully sample_901-1225,2021.1.4,MacIntel,60.0024001
,,,,,,q,1.0086,0,148,148,148,1,148,images/flickr_cat_000022.jpg,images/pixabay_cat_001265.jpg,Jessica U,001,2021-06-23_12h37.52.418,Cat face experiment_fully sample_901-1225,2021.1.4,MacIntel,60.0024001
,,,,,,q,1.1239,0,149,149,149,1,149,images/pixabay_cat_000411.jpg,images/pixabay_cat_004148.jpg,Jessica U,001,2021-06-23_12h37.52.418,Cat face experiment_fully sample_901-1225,2021.1.4,MacIntel,60.0024001
,,,,,,q,0.8728,0,150,150,150,1,150,images/pixabay_cat_001160.jpg,images/pixabay_cat_002300.jpg,Jessica U,001,2021-06-23_12h37.52.418,Cat face experiment_fully sample_901-1225,2021.1.4,MacIntel,60.0024001
,,,,,,q,1.1327,0,151,151,151,1,151,images/pixabay_cat_001160.jpg,images/pixabay_cat_000883.jpg,Jessica U,001,2021-06-23_12h37.52.418,Cat face experiment_fully sample_901-1225,2021.1.4,MacIntel,60.0024001
,,,,,,p,1.0955,0,152,152,152,1,152,images/pixabay_cat_003077.jpg,images/pixabay_cat_004049.jpg,Jessica U,001,2021-06-23_12h37.52.418,Cat face experiment_fully sample_901-1225,2021.1.4,MacIntel,60.0024001
,,,,,,p,1.1422,0,153,153,153,1,153,images/pixabay_cat_004489.jpg,images/pixabay_cat_001160.jpg,Jessica U,001,2021-06-23_12h37.52.418,Cat face experiment_fully sample_901-1225,2021.1.4,MacIntel,60.0024001
,,,,,,q,1.9419,0,154,154,154,1,154,images/pixabay_cat_000260.jpg,images/pixabay_cat_002614.jpg,Jessica U,001,2021-06-23_12h37.52.418,Cat face experiment_fully sample_901-1225,2021.1.4,MacIntel,60.0024001
,,,,,,p,1.3896,0,155,155,155,1,155,images/pixabay_cat_002614.jpg,images/flickr_cat_000200.jpg,Jessica U,001,2021-06-23_12h37.52.418,Cat face experiment_fully sample_901-1225,2021.1.4,MacIntel,60.0024001
,,,,,,q,2.5727,0,156,156,156,1,156,images/pixabay_cat_002601.jpg,images/pixabay_cat_001805.jpg,Jessica U,001,2021-06-23_12h37.52.418,Cat face experiment_fully sample_901-1225,2021.1.4,MacIntel,60.0024001
,,,,,,q,0.9768,0,157,157,157,1,157,images/flickr_cat_000285.jpg,images/pixabay_cat_004148.jpg,Jessica U,001,2021-06-23_12h37.52.418,Cat face experiment_fully sample_901-1225,2021.1.4,MacIntel,60.0024001
,,,,,,q,1.9762,0,158,158,158,1,158,images/pixabay_cat_001102.jpg,images/pixabay_cat_004049.jpg,Jessica U,001,2021-06-23_12h37.52.418,Cat face experiment_fully sample_901-1225,2021.1.4,MacIntel,60.0024001
,,,,,,q,10.7635,0,159,159,159,1,159,images/pixabay_cat_000260.jpg,images/pixabay_cat_003186.jpg,Jessica U,001,2021-06-23_12h37.52.418,Cat face experiment_fully sample_901-1225,2021.1.4,MacIntel,60.0024001
,,,,,,p,0.9988,0,160,160,160,1,160,images/pixabay_cat_003186.jpg,images/flickr_cat_000271.jpg,Jessica U,001,2021-06-23_12h37.52.418,Cat face experiment_fully sample_901-1225,2021.1.4,MacIntel,60.0024001
,,,,,,q,1.0236,0,161,161,161,1,161,images/pixabay_cat_001102.jpg,images/pixabay_cat_004641.jpg,Jessica U,001,2021-06-23_12h37.52.418,Cat face experiment_fully sample_901-1225,2021.1.4,MacIntel,60.0024001
,,,,,,p,1.0443,0,162,162,162,1,162,images/pixabay_cat_001265.jpg,images/pixabay_cat_003121.jpg,Jessica U,001,2021-06-23_12h37.52.418,Cat face experiment_fully sample_901-1225,2021.1.4,MacIntel,60.0024001
,,,,,,p,0.9105,0,163,163,163,1,163,images/pixabay_cat_004292.jpg,images/pixabay_cat_001160.jpg,Jessica U,001,2021-06-23_12h37.52.418,Cat face experiment_fully sample_901-1225,2021.1.4,MacIntel,60.0024001
,,,,,,q,1.523,0,164,164,164,1,164,images/pixabay_cat_002979.jpg,images/pixabay_cat_002300.jpg,Jessica U,001,2021-06-23_12h37.52.418,Cat face experiment_fully sample_901-1225,2021.1.4,MacIntel,60.0024001
,,,,,,p,1.9969,0,165,165,165,1,165,images/pixabay_cat_003425.jpg,images/pixabay_cat_001304.jpg,Jessica U,001,2021-06-23_12h37.52.418,Cat face experiment_fully sample_901-1225,2021.1.4,MacIntel,60.0024001
,,,,,,p,9.1416,0,166,166,166,1,166,images/flickr_cat_000240.jpg,images/pixabay_cat_002930.jpg,Jessica U,001,2021-06-23_12h37.52.418,Cat face experiment_fully sample_901-1225,2021.1.4,MacIntel,60.0024001
,,,,,,q,0.7778,0,167,167,167,1,167,images/pixabay_cat_000043.jpg,images/pixabay_cat_003566.jpg,Jessica U,001,2021-06-23_12h37.52.418,Cat face experiment_fully sample_901-1225,2021.1.4,MacIntel,60.0024001
,,,,,,p,1.2755,0,168,168,168,1,168,images/pixabay_cat_004292.jpg,images/pixabay_cat_002979.jpg,Jessica U,001,2021-06-23_12h37.52.418,Cat face experiment_fully sample_901-1225,2021.1.4,MacIntel,60.0024001
,,,,,,q,1.0969,0,169,169,169,1,169,images/pixabay_cat_000411.jpg,images/pixabay_cat_001597.jpg,Jessica U,001,2021-06-23_12h37.52.418,Cat face experiment_fully sample_901-1225,2021.1.4,MacIntel,60.0024001
,,,,,,p,1.7921,0,170,170,170,1,170,images/pixabay_cat_003635.jpg,images/pixabay_cat_002300.jpg,Jessica U,001,2021-06-23_12h37.52.418,Cat face experiment_fully sample_901-1225,2021.1.4,MacIntel,60.0024001
,,,,,,p,1.9941,0,171,171,171,1,171,images/pixabay_cat_003566.jpg,images/pixabay_cat_002930.jpg,Jessica U,001,2021-06-23_12h37.52.418,Cat face experiment_fully sample_901-1225,2021.1.4,MacIntel,60.0024001
,,,,,,q,1.1758,0,172,172,172,1,172,images/pixabay_cat_002045.jpg,images/pixabay_cat_002614.jpg,Jessica U,001,2021-06-23_12h37.52.418,Cat face experiment_fully sample_901-1225,2021.1.4,MacIntel,60.0024001
,,,,,,p,0.7913,0,173,173,173,1,173,images/pixabay_cat_003425.jpg,images/pixabay_cat_000043.jpg,Jessica U,001,2021-06-23_12h37.52.418,Cat face experiment_fully sample_901-1225,2021.1.4,MacIntel,60.0024001
,,,,,,p,1.3268,0,174,174,174,1,174,images/pixabay_cat_003077.jpg,images/pixabay_cat_002979.jpg,Jessica U,001,2021-06-23_12h37.52.418,Cat face experiment_fully sample_901-1225,2021.1.4,MacIntel,60.0024001
,,,,,,p,1.0582,0,175,175,175,1,175,images/pixabay_cat_004641.jpg,images/pixabay_cat_000120.jpg,Jessica U,001,2021-06-23_12h37.52.418,Cat face experiment_fully sample_901-1225,2021.1.4,MacIntel,60.0024001
,,,,,,p,1.1693,0,176,176,176,1,176,images/pixabay_cat_001502.jpg,images/flickr_cat_000022.jpg,Jessica U,001,2021-06-23_12h37.52.418,Cat face experiment_fully sample_901-1225,2021.1.4,MacIntel,60.0024001
,,,,,,p,1.824,0,177,177,177,1,177,images/pixabay_cat_004148.jpg,images/pixabay_cat_001805.jpg,Jessica U,001,2021-06-23_12h37.52.418,Cat face experiment_fully sample_901-1225,2021.1.4,MacIntel,60.0024001
,,,,,,p,1.3219,0,178,178,178,1,178,images/pixabay_cat_003077.jpg,images/pixabay_cat_000883.jpg,Jessica U,001,2021-06-23_12h37.52.418,Cat face experiment_fully sample_901-1225,2021.1.4,MacIntel,60.0024001
,,,,,,q,1.6391,0,179,179,179,1,179,images/flickr_cat_000581.jpg,images/pixabay_cat_001502.jpg,Jessica U,001,2021-06-23_12h37.52.418,Cat face experiment_fully sample_901-1225,2021.1.4,MacIntel,60.0024001
,,,,,,q,0.9228,0,180,180,180,1,180,images/pixabay_cat_001102.jpg,images/pixabay_cat_001284.jpg,Jessica U,001,2021-06-23_12h37.52.418,Cat face experiment_fully sample_901-1225,2021.1.4,MacIntel,60.0024001
,,,,,,p,1.4417,0,181,181,181,1,181,images/pixabay_cat_003635.jpg,images/pixabay_cat_002614.jpg,Jessica U,001,2021-06-23_12h37.52.418,Cat face experiment_fully sample_901-1225,2021.1.4,MacIntel,60.0024001
,,,,,,p,1.3229,0,182,182,182,1,182,images/pixabay_cat_003077.jpg,images/flickr_cat_000271.jpg,Jessica U,001,2021-06-23_12h37.52.418,Cat face experiment_fully sample_901-1225,2021.1.4,MacIntel,60.0024001
,,,,,,q,2.2254,0,183,183,183,1,183,images/flickr_cat_000581.jpg,images/pixabay_cat_004049.jpg,Jessica U,001,2021-06-23_12h37.52.418,Cat face experiment_fully sample_901-1225,2021.1.4,MacIntel,60.0024001
,,,,,,p,2.0401,0,184,184,184,1,184,images/pixabay_cat_001206.jpg,images/pixabay_cat_002300.jpg,Jessica U,001,2021-06-23_12h37.52.418,Cat face experiment_fully sample_901-1225,2021.1.4,MacIntel,60.0024001
,,,,,,p,5.0255,0,185,185,185,1,185,images/pixabay_cat_004641.jpg,images/flickr_cat_000200.jpg,Jessica U,001,2021-06-23_12h37.52.418,Cat face experiment_fully sample_901-1225,2021.1.4,MacIntel,60.0024001
,,,,,,p,2.4736,0,186,186,186,1,186,images/pixabay_cat_004489.jpg,images/pixabay_cat_001284.jpg,Jessica U,001,2021-06-23_12h37.52.418,Cat face experiment_fully sample_901-1225,2021.1.4,MacIntel,60.0024001
,,,,,,p,6.8029,0,187,187,187,1,187,images/pixabay_cat_004292.jpg,images/pixabay_cat_004641.jpg,Jessica U,001,2021-06-23_12h37.52.418,Cat face experiment_fully sample_901-1225,2021.1.4,MacIntel,60.0024001
,,,,,,q,3.5552,0,188,188,188,1,188,images/pixabay_cat_003927.jpg,images/pixabay_cat_001206.jpg,Jessica U,001,2021-06-23_12h37.52.418,Cat face experiment_fully sample_901-1225,2021.1.4,MacIntel,60.0024001
,,,,,,q,0.9405,0,189,189,189,1,189,images/pixabay_cat_000043.jpg,images/flickr_cat_000285.jpg,Jessica U,001,2021-06-23_12h37.52.418,Cat face experiment_fully sample_901-1225,2021.1.4,MacIntel,60.0024001
,,,,,,p,1.2238,0,190,190,190,1,190,images/flickr_cat_000206.jpg,images/pixabay_cat_001862.jpg,Jessica U,001,2021-06-23_12h37.52.418,Cat face experiment_fully sample_901-1225,2021.1.4,MacIntel,60.0024001
,,,,,,q,1.072,0,191,191,191,1,191,images/flickr_cat_000271.jpg,images/pixabay_cat_003638.jpg,Jessica U,001,2021-06-23_12h37.52.418,Cat face experiment_fully sample_901-1225,2021.1.4,MacIntel,60.0024001
,,,,,,q,0.7963,0,192,192,192,1,192,images/pixabay_cat_000043.jpg,images/pixabay_cat_003186.jpg,Jessica U,001,2021-06-23_12h37.52.418,Cat face experiment_fully sample_901-1225,2021.1.4,MacIntel,60.0024001
,,,,,,p,0.8999,0,193,193,193,1,193,images/pixabay_cat_002045.jpg,images/pixabay_cat_000286.jpg,Jessica U,001,2021-06-23_12h37.52.418,Cat face experiment_fully sample_901-1225,2021.1.4,MacIntel,60.0024001
,,,,,,q,1.3991,0,194,194,194,1,194,images/pixabay_cat_002979.jpg,images/pixabay_cat_003927.jpg,Jessica U,001,2021-06-23_12h37.52.418,Cat face experiment_fully sample_901-1225,2021.1.4,MacIntel,60.0024001
,,,,,,p,1.1112,0,195,195,195,1,195,images/flickr_cat_000206.jpg,images/pixabay_cat_001304.jpg,Jessica U,001,2021-06-23_12h37.52.418,Cat face experiment_fully sample_901-1225,2021.1.4,MacIntel,60.0024001
,,,,,,q,0.8916,0,196,196,196,1,196,images/pixabay_cat_003425.jpg,images/pixabay_cat_003077.jpg,Jessica U,001,2021-06-23_12h37.52.418,Cat face experiment_fully sample_901-1225,2021.1.4,MacIntel,60.0024001
,,,,,,p,2.4399,0,197,197,197,1,197,images/pixabay_cat_004292.jpg,images/flickr_cat_000240.jpg,Jessica U,001,2021-06-23_12h37.52.418,Cat face experiment_fully sample_901-1225,2021.1.4,MacIntel,60.0024001
,,,,,,q,1.2083,0,198,198,198,1,198,images/pixabay_cat_003228.jpg,images/flickr_cat_000083.jpg,Jessica U,001,2021-06-23_12h37.52.418,Cat face experiment_fully sample_901-1225,2021.1.4,MacIntel,60.0024001
,,,,,,q,1.1393,0,199,199,199,1,199,images/pixabay_cat_004489.jpg,images/pixabay_cat_002930.jpg,Jessica U,001,2021-06-23_12h37.52.418,Cat face experiment_fully sample_901-1225,2021.1.4,MacIntel,60.0024001
,,,,,,q,1.1061,0,200,200,200,1,200,images/pixabay_cat_000411.jpg,images/pixabay_cat_001304.jpg,Jessica U,001,2021-06-23_12h37.52.418,Cat face experiment_fully sample_901-1225,2021.1.4,MacIntel,60.0024001
,,,,,,q,0.8967,0,201,201,201,1,201,images/pixabay_cat_000043.jpg,images/flickr_cat_000083.jpg,Jessica U,001,2021-06-23_12h37.52.418,Cat face experiment_fully sample_901-1225,2021.1.4,MacIntel,60.0024001
,,,,,,q,0.96,0,202,202,202,1,202,images/pixabay_cat_000411.jpg,images/flickr_cat_000200.jpg,Jessica U,001,2021-06-23_12h37.52.418,Cat face experiment_fully sample_901-1225,2021.1.4,MacIntel,60.0024001
,,,,,,q,1.0696,0,203,203,203,1,203,images/flickr_cat_000285.jpg,images/pixabay_cat_003121.jpg,Jessica U,001,2021-06-23_12h37.52.418,Cat face experiment_fully sample_901-1225,2021.1.4,MacIntel,60.0024001
,,,,,,q,1.0577,0,204,204,204,1,204,images/pixabay_cat_001102.jpg,images/pixabay_cat_001206.jpg,Jessica U,001,2021-06-23_12h37.52.418,Cat face experiment_fully sample_901-1225,2021.1.4,MacIntel,60.0024001
,,,,,,q,9.3221,0,205,205,205,1,205,images/pixabay_cat_002979.jpg,images/pixabay_cat_001178.jpg,Jessica U,001,2021-06-23_12h37.52.418,Cat face experiment_fully sample_901-1225,2021.1.4,MacIntel,60.0024001
,,,,,,p,1.0582,0,206,206,206,1,206,images/pixabay_cat_003566.jpg,images/pixabay_cat_000883.jpg,Jessica U,001,2021-06-23_12h37.52.418,Cat face experiment_fully sample_901-1225,2021.1.4,MacIntel,60.0024001
,,,,,,p,2.6426,0,207,207,207,1,207,images/pixabay_cat_000260.jpg,images/pixabay_cat_001304.jpg,Jessica U,001,2021-06-23_12h37.52.418,Cat face experiment_fully sample_901-1225,2021.1.4,MacIntel,60.0024001
,,,,,,p,2.3958,0,208,208,208,1,208,images/flickr_cat_000266.jpg,images/pixabay_cat_004489.jpg,Jessica U,001,2021-06-23_12h37.52.418,Cat face experiment_fully sample_901-1225,2021.1.4,MacIntel,60.0024001
,,,,,,q,1.7059,0,209,209,209,1,209,images/pixabay_cat_002601.jpg,images/pixabay_cat_002979.jpg,Jessica U,001,2021-06-23_12h37.52.418,Cat face experiment_fully sample_901-1225,2021.1.4,MacIntel,60.0024001
,,,,,,q,5.3566,0,210,210,210,1,210,images/pixabay_cat_002045.jpg,images/pixabay_cat_002300.jpg,Jessica U,001,2021-06-23_12h37.52.418,Cat face experiment_fully sample_901-1225,2021.1.4,MacIntel,60.0024001
,,,,,,p,0.9412,0,211,211,211,1,211,images/pixabay_cat_003186.jpg,images/flickr_cat_000206.jpg,Jessica U,001,2021-06-23_12h37.52.418,Cat face experiment_fully sample_901-1225,2021.1.4,MacIntel,60.0024001
,,,,,,p,0.9739,0,212,212,212,1,212,images/pixabay_cat_004489.jpg,images/pixabay_cat_002045.jpg,Jessica U,001,2021-06-23_12h37.52.418,Cat face experiment_fully sample_901-1225,2021.1.4,MacIntel,60.0024001
,,,,,,q,1.1632,0,213,213,213,1,213,images/pixabay_cat_004641.jpg,images/flickr_cat_000206.jpg,Jessica U,001,2021-06-23_12h37.52.418,Cat face experiment_fully sample_901-1225,2021.1.4,MacIntel,60.0024001
,,,,,,p,0.6748,0,214,214,214,1,214,images/pixabay_cat_000411.jpg,images/pixabay_cat_000286.jpg,Jessica U,001,2021-06-23_12h37.52.418,Cat face experiment_fully sample_901-1225,2021.1.4,MacIntel,60.0024001
,,,,,,p,1.1401,0,215,215,215,1,215,images/pixabay_cat_000260.jpg,images/pixabay_cat_001862.jpg,Jessica U,001,2021-06-23_12h37.52.418,Cat face experiment_fully sample_901-1225,2021.1.4,MacIntel,60.0024001
,,,,,,p,1.2132,0,216,216,216,1,216,images/pixabay_cat_004049.jpg,images/pixabay_cat_001862.jpg,Jessica U,001,2021-06-23_12h37.52.418,Cat face experiment_fully sample_901-1225,2021.1.4,MacIntel,60.0024001
,,,,,,q,43.0249,0,217,217,217,1,217,images/pixabay_cat_001160.jpg,images/flickr_cat_000271.jpg,Jessica U,001,2021-06-23_12h37.52.418,Cat face experiment_fully sample_901-1225,2021.1.4,MacIntel,60.0024001
,,,,,,p,1.3192,0,218,218,218,1,218,images/pixabay_cat_004641.jpg,images/pixabay_cat_004182.jpg,Jessica U,001,2021-06-23_12h37.52.418,Cat face experiment_fully sample_901-1225,2021.1.4,MacIntel,60.0024001
,,,,,,q,1.8526,0,219,219,219,1,219,images/flickr_cat_000240.jpg,images/pixabay_cat_003927.jpg,Jessica U,001,2021-06-23_12h37.52.418,Cat face experiment_fully sample_901-1225,2021.1.4,MacIntel,60.0024001
,,,,,,p,0.8242,0,220,220,220,1,220,images/pixabay_cat_003077.jpg,images/flickr_cat_000285.jpg,Jessica U,001,2021-06-23_12h37.52.418,Cat face experiment_fully sample_901-1225,2021.1.4,MacIntel,60.0024001
,,,,,,p,0.7901,0,221,221,221,1,221,images/flickr_cat_000266.jpg,images/pixabay_cat_000286.jpg,Jessica U,001,2021-06-23_12h37.52.418,Cat face experiment_fully sample_901-1225,2021.1.4,MacIntel,60.0024001
,,,,,,p,1.1111,0,222,222,222,1,222,images/pixabay_cat_003425.jpg,images/pixabay_cat_002979.jpg,Jessica U,001,2021-06-23_12h37.52.418,Cat face experiment_fully sample_901-1225,2021.1.4,MacIntel,60.0024001
,,,,,,q,1.6315,0,223,223,223,1,223,images/pixabay_cat_003927.jpg,images/pixabay_cat_003312.jpg,Jessica U,001,2021-06-23_12h37.52.418,Cat face experiment_fully sample_901-1225,2021.1.4,MacIntel,60.0024001
,,,,,,q,2.3502,0,224,224,224,1,224,images/pixabay_cat_004148.jpg,images/pixabay_cat_002930.jpg,Jessica U,001,2021-06-23_12h37.52.418,Cat face experiment_fully sample_901-1225,2021.1.4,MacIntel,60.0024001
,,,,,,p,0.9769,0,225,225,225,1,225,images/pixabay_cat_003425.jpg,images/flickr_cat_000266.jpg,Jessica U,001,2021-06-23_12h37.52.418,Cat face experiment_fully sample_901-1225,2021.1.4,MacIntel,60.0024001
,,,,,,p,1.3459,0,226,226,226,1,226,images/pixabay_cat_003425.jpg,images/pixabay_cat_002614.jpg,Jessica U,001,2021-06-23_12h37.52.418,Cat face experiment_fully sample_901-1225,2021.1.4,MacIntel,60.0024001
,,,,,,q,1.0622,0,227,227,227,1,227,images/flickr_cat_000581.jpg,images/pixabay_cat_001862.jpg,Jessica U,001,2021-06-23_12h37.52.418,Cat face experiment_fully sample_901-1225,2021.1.4,MacIntel,60.0024001
,,,,,,p,0.78,0,228,228,228,1,228,images/pixabay_cat_002690.jpg,images/pixabay_cat_000286.jpg,Jessica U,001,2021-06-23_12h37.52.418,Cat face experiment_fully sample_901-1225,2021.1.4,MacIntel,60.0024001
,,,,,,p,1.2599,0,229,229,229,1,229,images/pixabay_cat_003186.jpg,images/pixabay_cat_004049.jpg,Jessica U,001,2021-06-23_12h37.52.418,Cat face experiment_fully sample_901-1225,2021.1.4,MacIntel,60.0024001
,,,,,,p,1.0399,0,230,230,230,1,230,images/pixabay_cat_002601.jpg,images/flickr_cat_000285.jpg,Jessica U,001,2021-06-23_12h37.52.418,Cat face experiment_fully sample_901-1225,2021.1.4,MacIntel,60.0024001
,,,,,,p,1.0095,0,231,231,231,1,231,images/pixabay_cat_000260.jpg,images/pixabay_cat_001284.jpg,Jessica U,001,2021-06-23_12h37.52.418,Cat face experiment_fully sample_901-1225,2021.1.4,MacIntel,60.0024001
,,,,,,q,3.1642,0,232,232,232,1,232,images/flickr_cat_000266.jpg,images/pixabay_cat_003312.jpg,Jessica U,001,2021-06-23_12h37.52.418,Cat face experiment_fully sample_901-1225,2021.1.4,MacIntel,60.0024001
,,,,,,p,0.8467,0,233,233,233,1,233,images/pixabay_cat_003566.jpg,images/pixabay_cat_001284.jpg,Jessica U,001,2021-06-23_12h37.52.418,Cat face experiment_fully sample_901-1225,2021.1.4,MacIntel,60.0024001
,,,,,,p,1.4296,0,234,234,234,1,234,images/pixabay_cat_002690.jpg,images/pixabay_cat_002979.jpg,Jessica U,001,2021-06-23_12h37.52.418,Cat face experiment_fully sample_901-1225,2021.1.4,MacIntel,60.0024001
,,,,,,q,0.9523,0,235,235,235,1,235,images/pixabay_cat_000411.jpg,images/pixabay_cat_002979.jpg,Jessica U,001,2021-06-23_12h37.52.418,Cat face experiment_fully sample_901-1225,2021.1.4,MacIntel,60.0024001
,,,,,,q,1.4754,0,236,236,236,1,236,images/flickr_cat_000240.jpg,images/pixabay_cat_002614.jpg,Jessica U,001,2021-06-23_12h37.52.418,Cat face experiment_fully sample_901-1225,2021.1.4,MacIntel,60.0024001
,,,,,,q,1.3763,0,237,237,237,1,237,images/pixabay_cat_000411.jpg,images/pixabay_cat_003638.jpg,Jessica U,001,2021-06-23_12h37.52.418,Cat face experiment_fully sample_901-1225,2021.1.4,MacIntel,60.0024001
,,,,,,p,2.0232,0,238,238,238,1,238,images/pixabay_cat_001502.jpg,images/pixabay_cat_002979.jpg,Jessica U,001,2021-06-23_12h37.52.418,Cat face experiment_fully sample_901-1225,2021.1.4,MacIntel,60.0024001
,,,,,,q,0.9115,0,239,239,239,1,239,images/pixabay_cat_001502.jpg,images/pixabay_cat_000260.jpg,Jessica U,001,2021-06-23_12h37.52.418,Cat face experiment_fully sample_901-1225,2021.1.4,MacIntel,60.0024001
,,,,,,q,1.1399,0,240,240,240,1,240,images/pixabay_cat_004292.jpg,images/pixabay_cat_001265.jpg,Jessica U,001,2021-06-23_12h37.52.418,Cat face experiment_fully sample_901-1225,2021.1.4,MacIntel,60.0024001
,,,,,,p,2.3417,0,241,241,241,1,241,images/flickr_cat_000266.jpg,images/pixabay_cat_002690.jpg,Jessica U,001,2021-06-23_12h37.52.418,Cat face experiment_fully sample_901-1225,2021.1.4,MacIntel,60.0024001
,,,,,,p,2.1089,0,242,242,242,1,242,images/pixabay_cat_003638.jpg,images/pixabay_cat_002930.jpg,Jessica U,001,2021-06-23_12h37.52.418,Cat face experiment_fully sample_901-1225,2021.1.4,MacIntel,60.0024001
,,,,,,p,0.957,0,243,243,243,1,243,images/pixabay_cat_001502.jpg,images/pixabay_cat_000883.jpg,Jessica U,001,2021-06-23_12h37.52.418,Cat face experiment_fully sample_901-1225,2021.1.4,MacIntel,60.0024001
,,,,,,p,1.5078,0,244,244,244,1,244,images/pixabay_cat_002601.jpg,images/pixabay_cat_004641.jpg,Jessica U,001,2021-06-23_12h37.52.418,Cat face experiment_fully sample_901-1225,2021.1.4,MacIntel,60.0024001
,,,,,,p,2.842,0,245,245,245,1,245,images/pixabay_cat_003638.jpg,images/flickr_cat_000200.jpg,Jessica U,001,2021-06-23_12h37.52.418,Cat face experiment_fully sample_901-1225,2021.1.4,MacIntel,60.0024001
,,,,,,p,1.0351,0,246,246,246,1,246,images/pixabay_cat_003425.jpg,images/pixabay_cat_001862.jpg,Jessica U,001,2021-06-23_12h37.52.418,Cat face experiment_fully sample_901-1225,2021.1.4,MacIntel,60.0024001
,,,,,,q,0.8099,0,247,247,247,1,247,images/pixabay_cat_000043.jpg,images/pixabay_cat_004148.jpg,Jessica U,001,2021-06-23_12h37.52.418,Cat face experiment_fully sample_901-1225,2021.1.4,MacIntel,60.0024001
,,,,,,p,0.8078,0,248,248,248,1,248,images/pixabay_cat_004292.jpg,images/pixabay_cat_000043.jpg,Jessica U,001,2021-06-23_12h37.52.418,Cat face experiment_fully sample_901-1225,2021.1.4,MacIntel,60.0024001
,,,,,,p,3.6932,0,249,249,249,1,249,images/flickr_cat_000240.jpg,images/pixabay_cat_001284.jpg,Jessica U,001,2021-06-23_12h37.52.418,Cat face experiment_fully sample_901-1225,2021.1.4,MacIntel,60.0024001
,,,,,,p,0.8486,0,250,250,250,1,250,images/flickr_cat_000022.jpg,images/flickr_cat_000271.jpg,Jessica U,001,2021-06-23_12h37.52.418,Cat face experiment_fully sample_901-1225,2021.1.4,MacIntel,60.0024001
,,,,,,p,301.2722,0,251,251,251,1,251,images/pixabay_cat_003121.jpg,images/pixabay_cat_004148.jpg,Jessica U,001,2021-06-23_12h37.52.418,Cat face experiment_fully sample_901-1225,2021.1.4,MacIntel,60.0024001
,,,,,,p,1.1222,0,252,252,252,1,252,images/pixabay_cat_001206.jpg,images/pixabay_cat_000883.jpg,Jessica U,001,2021-06-23_12h37.52.418,Cat face experiment_fully sample_901-1225,2021.1.4,MacIntel,60.0024001
,,,,,,q,1.1242,0,253,253,253,1,253,images/pixabay_cat_000411.jpg,images/pixabay_cat_000260.jpg,Jessica U,001,2021-06-23_12h37.52.418,Cat face experiment_fully sample_901-1225,2021.1.4,MacIntel,60.0024001
,,,,,,p,0.857,0,254,254,254,1,254,images/pixabay_cat_003186.jpg,images/pixabay_cat_001160.jpg,Jessica U,001,2021-06-23_12h37.52.418,Cat face experiment_fully sample_901-1225,2021.1.4,MacIntel,60.0024001
,,,,,,p,2.1116,0,255,255,255,1,255,images/flickr_cat_000200.jpg,images/pixabay_cat_001862.jpg,Jessica U,001,2021-06-23_12h37.52.418,Cat face experiment_fully sample_901-1225,2021.1.4,MacIntel,60.0024001
,,,,,,p,1.4027,0,256,256,256,1,256,images/pixabay_cat_001597.jpg,images/pixabay_cat_004489.jpg,Jessica U,001,2021-06-23_12h37.52.418,Cat face experiment_fully sample_901-1225,2021.1.4,MacIntel,60.0024001
,,,,,,p,0.8226,0,257,257,257,1,257,images/flickr_cat_000083.jpg,images/pixabay_cat_000286.jpg,Jessica U,001,2021-06-23_12h37.52.418,Cat face experiment_fully sample_901-1225,2021.1.4,MacIntel,60.0024001
,,,,,,q,0.6787,0,258,258,258,1,258,images/pixabay_cat_000120.jpg,images/pixabay_cat_000286.jpg,Jessica U,001,2021-06-23_12h37.52.418,Cat face experiment_fully sample_901-1225,2021.1.4,MacIntel,60.0024001
,,,,,,q,0.8268,0,259,259,259,1,259,images/pixabay_cat_001160.jpg,images/pixabay_cat_001862.jpg,Jessica U,001,2021-06-23_12h37.52.418,Cat face experiment_fully sample_901-1225,2021.1.4,MacIntel,60.0024001
,,,,,,q,1.0254,0,260,260,260,1,260,images/pixabay_cat_001102.jpg,images/pixabay_cat_003077.jpg,Jessica U,001,2021-06-23_12h37.52.418,Cat face experiment_fully sample_901-1225,2021.1.4,MacIntel,60.0024001
,,,,,,q,1.6061,0,261,261,261,1,261,images/pixabay_cat_004148.jpg,images/pixabay_cat_002300.jpg,Jessica U,001,2021-06-23_12h37.52.418,Cat face experiment_fully sample_901-1225,2021.1.4,MacIntel,60.0024001
,,,,,,p,1.1615,0,262,262,262,1,262,images/pixabay_cat_001597.jpg,images/pixabay_cat_004148.jpg,Jessica U,001,2021-06-23_12h37.52.418,Cat face experiment_fully sample_901-1225,2021.1.4,MacIntel,60.0024001
,,,,,,q,2.5535,0,263,263,263,1,263,images/flickr_cat_000083.jpg,images/pixabay_cat_003312.jpg,Jessica U,001,2021-06-23_12h37.52.418,Cat face experiment_fully sample_901-1225,2021.1.4,MacIntel,60.0024001
,,,,,,q,0.9052,0,264,264,264,1,264,images/flickr_cat_000581.jpg,images/pixabay_cat_004489.jpg,Jessica U,001,2021-06-23_12h37.52.418,Cat face experiment_fully sample_901-1225,2021.1.4,MacIntel,60.0024001
,,,,,,p,2.0864,0,265,265,265,1,265,images/pixabay_cat_002045.jpg,images/pixabay_cat_001862.jpg,Jessica U,001,2021-06-23_12h37.52.418,Cat face experiment_fully sample_901-1225,2021.1.4,MacIntel,60.0024001
,,,,,,q,1.0474,0,266,266,266,1,266,images/pixabay_cat_001102.jpg,images/flickr_cat_000240.jpg,Jessica U,001,2021-06-23_12h37.52.418,Cat face experiment_fully sample_901-1225,2021.1.4,MacIntel,60.0024001
,,,,,,q,1.5121,0,267,267,267,1,267,images/pixabay_cat_001304.jpg,images/pixabay_cat_001178.jpg,Jessica U,001,2021-06-23_12h37.52.418,Cat face experiment_fully sample_901-1225,2021.1.4,MacIntel,60.0024001
,,,,,,q,0.9283,0,268,268,268,1,268,images/flickr_cat_000271.jpg,images/pixabay_cat_001178.jpg,Jessica U,001,2021-06-23_12h37.52.418,Cat face experiment_fully sample_901-1225,2021.1.4,MacIntel,60.0024001
,,,,,,p,1.1581,0,269,269,269,1,269,images/pixabay_cat_003635.jpg,images/pixabay_cat_003638.jpg,Jessica U,001,2021-06-23_12h37.52.418,Cat face experiment_fully sample_901-1225,2021.1.4,MacIntel,60.0024001
,,,,,,q,2.5854,0,270,270,270,1,270,images/pixabay_cat_002979.jpg,images/pixabay_cat_004182.jpg,Jessica U,001,2021-06-23_12h37.52.418,Cat face experiment_fully sample_901-1225,2021.1.4,MacIntel,60.0024001
,,,,,,p,0.8277,0,271,271,271,1,271,images/pixabay_cat_001265.jpg,images/pixabay_cat_004182.jpg,Jessica U,001,2021-06-23_12h37.52.418,Cat face experiment_fully sample_901-1225,2021.1.4,MacIntel,60.0024001
,,,,,,q,1.0772,0,272,272,272,1,272,images/pixabay_cat_000411.jpg,images/flickr_cat_000266.jpg,Jessica U,001,2021-06-23_12h37.52.418,Cat face experiment_fully sample_901-1225,2021.1.4,MacIntel,60.0024001
,,,,,,p,1.1031,0,273,273,273,1,273,images/pixabay_cat_001178.jpg,images/pixabay_cat_001805.jpg,Jessica U,001,2021-06-23_12h37.52.418,Cat face experiment_fully sample_901-1225,2021.1.4,MacIntel,60.0024001
,,,,,,p,0.7598,0,274,274,274,1,274,images/flickr_cat_000266.jpg,images/pixabay_cat_001805.jpg,Jessica U,001,2021-06-23_12h37.52.418,Cat face experiment_fully sample_901-1225,2021.1.4,MacIntel,60.0024001
,,,,,,q,1.5226,0,275,275,275,1,275,images/flickr_cat_000240.jpg,images/pixabay_cat_003312.jpg,Jessica U,001,2021-06-23_12h37.52.418,Cat face experiment_fully sample_901-1225,2021.1.4,MacIntel,60.0024001
,,,,,,p,2.7399,0,276,276,276,1,276,images/pixabay_cat_003186.jpg,images/pixabay_cat_002930.jpg,Jessica U,001,2021-06-23_12h37.52.418,Cat face experiment_fully sample_901-1225,2021.1.4,MacIntel,60.0024001
,,,,,,p,0.7286,0,277,277,277,1,277,images/pixabay_cat_003186.jpg,images/flickr_cat_000240.jpg,Jessica U,001,2021-06-23_12h37.52.418,Cat face experiment_fully sample_901-1225,2021.1.4,MacIntel,60.0024001
,,,,,,p,1.4577,0,278,278,278,1,278,images/pixabay_cat_002979.jpg,images/pixabay_cat_001862.jpg,Jessica U,001,2021-06-23_12h37.52.418,Cat face experiment_fully sample_901-1225,2021.1.4,MacIntel,60.0024001
,,,,,,q,1.1487,0,279,279,279,1,279,images/pixabay_cat_000120.jpg,images/flickr_cat_000271.jpg,Jessica U,001,2021-06-23_12h37.52.418,Cat face experiment_fully sample_901-1225,2021.1.4,MacIntel,60.0024001
,,,,,,q,0.9614,0,280,280,280,1,280,images/pixabay_cat_000043.jpg,images/pixabay_cat_003312.jpg,Jessica U,001,2021-06-23_12h37.52.418,Cat face experiment_fully sample_901-1225,2021.1.4,MacIntel,60.0024001
,,,,,,p,2.6957,0,281,281,281,1,281,images/pixabay_cat_003638.jpg,images/pixabay_cat_002300.jpg,Jessica U,001,2021-06-23_12h37.52.418,Cat face experiment_fully sample_901-1225,2021.1.4,MacIntel,60.0024001
,,,,,,q,2.6563,0,282,282,282,1,282,images/pixabay_cat_003121.jpg,images/pixabay_cat_003638.jpg,Jessica U,001,2021-06-23_12h37.52.418,Cat face experiment_fully sample_901-1225,2021.1.4,MacIntel,60.0024001
,,,,,,q,1.2071,0,283,283,283,1,283,images/pixabay_cat_001102.jpg,images/pixabay_cat_002690.jpg,Jessica U,001,2021-06-23_12h37.52.418,Cat face experiment_fully sample_901-1225,2021.1.4,MacIntel,60.0024001
,,,,,,q,0.9399,0,284,284,284,1,284,images/pixabay_cat_000411.jpg,images/pixabay_cat_004049.jpg,Jessica U,001,2021-06-23_12h37.52.418,Cat face experiment_fully sample_901-1225,2021.1.4,MacIntel,60.0024001
,,,,,,q,0.946,0,285,285,285,1,285,images/pixabay_cat_000043.jpg,images/pixabay_cat_002979.jpg,Jessica U,001,2021-06-23_12h37.52.418,Cat face experiment_fully sample_901-1225,2021.1.4,MacIntel,60.0024001
,,,,,,q,1.2457,0,286,286,286,1,286,images/pixabay_cat_001160.jpg,images/flickr_cat_000200.jpg,Jessica U,001,2021-06-23_12h37.52.418,Cat face experiment_fully sample_901-1225,2021.1.4,MacIntel,60.0024001
,,,,,,p,2.6199,0,287,287,287,1,287,images/pixabay_cat_003425.jpg,images/flickr_cat_000271.jpg,Jessica U,001,2021-06-23_12h37.52.418,Cat face experiment_fully sample_901-1225,2021.1.4,MacIntel,60.0024001
,,,,,,p,0.9777,0,288,288,288,1,288,images/pixabay_cat_003425.jpg,images/pixabay_cat_003121.jpg,Jessica U,001,2021-06-23_12h37.52.418,Cat face experiment_fully sample_901-1225,2021.1.4,MacIntel,60.0024001
,,,,,,q,1.1798,0,289,289,289,1,289,images/pixabay_cat_004489.jpg,images/pixabay_cat_001304.jpg,Jessica U,001,2021-06-23_12h37.52.418,Cat face experiment_fully sample_901-1225,2021.1.4,MacIntel,60.0024001
,,,,,,p,1.075,0,290,290,290,1,290,images/pixabay_cat_001178.jpg,images/pixabay_cat_004182.jpg,Jessica U,001,2021-06-23_12h37.52.418,Cat face experiment_fully sample_901-1225,2021.1.4,MacIntel,60.0024001
,,,,,,q,1.1686,0,291,291,291,1,291,images/pixabay_cat_004641.jpg,images/pixabay_cat_003186.jpg,Jessica U,001,2021-06-23_12h37.52.418,Cat face experiment_fully sample_901-1225,2021.1.4,MacIntel,60.0024001
,,,,,,p,1.1083,0,292,292,292,1,292,images/pixabay_cat_004292.jpg,images/pixabay_cat_001805.jpg,Jessica U,001,2021-06-23_12h37.52.418,Cat face experiment_fully sample_901-1225,2021.1.4,MacIntel,60.0024001
,,,,,,q,1.7368,0,293,293,293,1,293,images/pixabay_cat_004049.jpg,images/pixabay_cat_001284.jpg,Jessica U,001,2021-06-23_12h37.52.418,Cat face experiment_fully sample_901-1225,2021.1.4,MacIntel,60.0024001
,,,,,,p,1.4863,0,294,294,294,1,294,images/pixabay_cat_004292.jpg,images/pixabay_cat_002690.jpg,Jessica U,001,2021-06-23_12h37.52.418,Cat face experiment_fully sample_901-1225,2021.1.4,MacIntel,60.0024001
,,,,,,q,1.7693,0,295,295,295,1,295,images/pixabay_cat_002614.jpg,images/pixabay_cat_001304.jpg,Jessica U,001,2021-06-23_12h37.52.418,Cat face experiment_fully sample_901-1225,2021.1.4,MacIntel,60.0024001
,,,,,,p,0.9905,0,296,296,296,1,296,images/pixabay_cat_001597.jpg,images/pixabay_cat_001862.jpg,Jessica U,001,2021-06-23_12h37.52.418,Cat face experiment_fully sample_901-1225,2021.1.4,MacIntel,60.0024001
,,,,,,p,0.8239,0,297,297,297,1,297,images/pixabay_cat_002930.jpg,images/pixabay_cat_000286.jpg,Jessica U,001,2021-06-23_12h37.52.418,Cat face experiment_fully sample_901-1225,2021.1.4,MacIntel,60.0024001
,,,,,,q,2.2631,0,298,298,298,1,298,images/flickr_cat_000271.jpg,images/pixabay_cat_002930.jpg,Jessica U,001,2021-06-23_12h37.52.418,Cat face experiment_fully sample_901-1225,2021.1.4,MacIntel,60.0024001
,,,,,,p,0.7263,0,299,299,299,1,299,images/pixabay_cat_003425.jpg,images/pixabay_cat_000120.jpg,Jessica U,001,2021-06-23_12h37.52.418,Cat face experiment_fully sample_901-1225,2021.1.4,MacIntel,60.0024001
,,,,,,p,1.1477,0,300,300,300,1,300,images/pixabay_cat_000260.jpg,images/pixabay_cat_004148.jpg,Jessica U,001,2021-06-23_12h37.52.418,Cat face experiment_fully sample_901-1225,2021.1.4,MacIntel,60.0024001
,,,,,,q,1.8096,0,301,301,301,1,301,images/pixabay_cat_002979.jpg,images/pixabay_cat_001304.jpg,Jessica U,001,2021-06-23_12h37.52.418,Cat face experiment_fully sample_901-1225,2021.1.4,MacIntel,60.0024001
,,,,,,q,1.1364,0,302,302,302,1,302,images/flickr_cat_000285.jpg,images/pixabay_cat_001862.jpg,Jessica U,001,2021-06-23_12h37.52.418,Cat face experiment_fully sample_901-1225,2021.1.4,MacIntel,60.0024001
,,,,,,q,0.9031,0,303,303,303,1,303,images/pixabay_cat_001502.jpg,images/pixabay_cat_001304.jpg,Jessica U,001,2021-06-23_12h37.52.418,Cat face experiment_fully sample_901-1225,2021.1.4,MacIntel,60.0024001
,,,,,,p,0.9093,0,304,304,304,1,304,images/pixabay_cat_001265.jpg,images/flickr_cat_000083.jpg,Jessica U,001,2021-06-23_12h37.52.418,Cat face experiment_fully sample_901-1225,2021.1.4,MacIntel,60.0024001
,,,,,,p,1.0066,0,305,305,305,1,305,images/pixabay_cat_003638.jpg,images/pixabay_cat_001284.jpg,Jessica U,001,2021-06-23_12h37.52.418,Cat face experiment_fully sample_901-1225,2021.1.4,MacIntel,60.0024001
,,,,,,p,0.9765,0,306,306,306,1,306,images/pixabay_cat_001597.jpg,images/pixabay_cat_003312.jpg,Jessica U,001,2021-06-23_12h37.52.418,Cat face experiment_fully sample_901-1225,2021.1.4,MacIntel,60.0024001
,,,,,,p,1.6968,0,307,307,307,1,307,images/pixabay_cat_003425.jpg,images/pixabay_cat_001178.jpg,Jessica U,001,2021-06-23_12h37.52.418,Cat face experiment_fully sample_901-1225,2021.1.4,MacIntel,60.0024001
,,,,,,q,0.753,0,308,308,308,1,308,images/pixabay_cat_002045.jpg,images/flickr_cat_000206.jpg,Jessica U,001,2021-06-23_12h37.52.418,Cat face experiment_fully sample_901-1225,2021.1.4,MacIntel,60.0024001
,,,,,,q,1.1728,0,309,309,309,1,309,images/pixabay_cat_000120.jpg,images/pixabay_cat_002979.jpg,Jessica U,001,2021-06-23_12h37.52.418,Cat face experiment_fully sample_901-1225,2021.1.4,MacIntel,60.0024001
,,,,,,p,1.9917,0,310,310,310,1,310,images/pixabay_cat_003566.jpg,images/flickr_cat_000240.jpg,Jessica U,001,2021-06-23_12h37.52.418,Cat face experiment_fully sample_901-1225,2021.1.4,MacIntel,60.0024001
,,,,,,p,1.0441,0,311,311,311,1,311,images/flickr_cat_000083.jpg,images/pixabay_cat_001284.jpg,Jessica U,001,2021-06-23_12h37.52.418,Cat face experiment_fully sample_901-1225,2021.1.4,MacIntel,60.0024001
,,,,,,p,1.3306,0,312,312,312,1,312,images/pixabay_cat_004292.jpg,images/flickr_cat_000285.jpg,Jessica U,001,2021-06-23_12h37.52.418,Cat face experiment_fully sample_901-1225,2021.1.4,MacIntel,60.0024001
,,,,,,q,1.4747,0,313,313,313,1,313,images/flickr_cat_000200.jpg,images/pixabay_cat_000100.jpg,Jessica U,001,2021-06-23_12h37.52.418,Cat face experiment_fully sample_901-1225,2021.1.4,MacIntel,60.0024001
,,,,,,p,1.2057,0,314,314,314,1,314,images/pixabay_cat_004489.jpg,images/pixabay_cat_004148.jpg,Jessica U,001,2021-06-23_12h37.52.418,Cat face experiment_fully sample_901-1225,2021.1.4,MacIntel,60.0024001
,,,,,,q,0.7703,0,315,315,315,1,315,images/pixabay_cat_001160.jpg,images/pixabay_cat_000286.jpg,Jessica U,001,2021-06-23_12h37.52.418,Cat face experiment_fully sample_901-1225,2021.1.4,MacIntel,60.0024001
,,,,,,q,1.0126,0,316,316,316,1,316,images/pixabay_cat_001160.jpg,images/pixabay_cat_001304.jpg,Jessica U,001,2021-06-23_12h37.52.418,Cat face experiment_fully sample_901-1225,2021.1.4,MacIntel,60.0024001
,,,,,,p,0.725,0,317,317,317,1,317,images/pixabay_cat_001805.jpg,images/pixabay_cat_000286.jpg,Jessica U,001,2021-06-23_12h37.52.418,Cat face experiment_fully sample_901-1225,2021.1.4,MacIntel,60.0024001
,,,,,,p,2.5459,0,318,318,318,1,318,images/pixabay_cat_002690.jpg,images/pixabay_cat_004148.jpg,Jessica U,001,2021-06-23_12h37.52.418,Cat face experiment_fully sample_901-1225,2021.1.4,MacIntel,60.0024001
,,,,,,p,1.1116,0,319,319,319,1,319,images/pixabay_cat_003077.jpg,images/pixabay_cat_003312.jpg,Jessica U,001,2021-06-23_12h37.52.418,Cat face experiment_fully sample_901-1225,2021.1.4,MacIntel,60.0024001
,,,,,,q,1.0708,0,320,320,320,1,320,images/pixabay_cat_002601.jpg,images/pixabay_cat_001206.jpg,Jessica U,001,2021-06-23_12h37.52.418,Cat face experiment_fully sample_901-1225,2021.1.4,MacIntel,60.0024001
,,,,,,q,1.9247,0,321,321,321,1,321,images/pixabay_cat_002979.jpg,images/pixabay_cat_003638.jpg,Jessica U,001,2021-06-23_12h37.52.418,Cat face experiment_fully sample_901-1225,2021.1.4,MacIntel,60.0024001
,,,,,,q,1.075,0,322,322,322,1,322,images/pixabay_cat_002045.jpg,images/pixabay_cat_001178.jpg,Jessica U,001,2021-06-23_12h37.52.418,Cat face experiment_fully sample_901-1225,2021.1.4,MacIntel,60.0024001
,,,,,,q,0.7286,0,323,323,323,1,323,images/pixabay_cat_001160.jpg,images/pixabay_cat_001178.jpg,Jessica U,001,2021-06-23_12h37.52.418,Cat face experiment_fully sample_901-1225,2021.1.4,MacIntel,60.0024001
,,,,,,p,0.869,0,324,324,324,1,324,images/flickr_cat_000022.jpg,images/pixabay_cat_003121.jpg,Jessica U,001,2021-06-23_12h37.52.418,Cat face experiment_fully sample_901-1225,2021.1.4,MacIntel,60.0024001
