key_resp.keys,key_resp.rt,key_resp_2.keys,key_resp_2.rt,key_resp_3.keys,key_resp_3.rt,key_resp_4.keys,key_resp_4.rt,trials.thisRepN,trials.thisTrialN,trials.thisN,trials.thisIndex,trials.ran,trail_nums,img1,img2,participant,session,date,expName,psychopyVersion,OS,frameRate
space,0.8641,space,1.078,space,1.0095,q,8.6035,0,0,0,0,1,0,images/pixabay_cat_004641.jpg,images/pixabay_cat_003927.jpg,Jesse,001,2021-07-19_15h56.53.813,Cat face experiment_fully sample_601-900,2021.1.4,Win32,59.72645285
,,,,,,q,1.2516,0,1,1,1,1,1,images/pixabay_cat_003186.jpg,images/pixabay_cat_000100.jpg,Jesse,001,2021-07-19_15h56.53.813,Cat face experiment_fully sample_601-900,2021.1.4,Win32,59.72645285
,,,,,,q,1.1299,0,2,2,2,1,2,images/pixabay_cat_003566.jpg,images/flickr_cat_000200.jpg,Jesse,001,2021-07-19_15h56.53.813,Cat face experiment_fully sample_601-900,2021.1.4,Win32,59.72645285
,,,,,,p,0.8165,0,3,3,3,1,3,images/pixabay_cat_000043.jpg,images/pixabay_cat_002690.jpg,Jesse,001,2021-07-19_15h56.53.813,Cat face experiment_fully sample_601-900,2021.1.4,Win32,59.72645285
,,,,,,q,0.7012,0,4,4,4,1,4,images/flickr_cat_000022.jpg,images/pixabay_cat_004049.jpg,Jesse,001,2021-07-19_15h56.53.813,Cat face experiment_fully sample_601-900,2021.1.4,Win32,59.72645285
,,,,,,p,0.6713,0,5,5,5,1,5,images/pixabay_cat_002690.jpg,images/pixabay_cat_003312.jpg,Jesse,001,2021-07-19_15h56.53.813,Cat face experiment_fully sample_601-900,2021.1.4,Win32,59.72645285
,,,,,,p,0.6255,0,6,6,6,1,6,images/pixabay_cat_002601.jpg,images/flickr_cat_000083.jpg,Jesse,001,2021-07-19_15h56.53.813,Cat face experiment_fully sample_601-900,2021.1.4,Win32,59.72645285
,,,,,,q,0.7279,0,7,7,7,1,7,images/pixabay_cat_001597.jpg,images/flickr_cat_000271.jpg,Jesse,001,2021-07-19_15h56.53.813,Cat face experiment_fully sample_601-900,2021.1.4,Win32,59.72645285
,,,,,,p,0.6333,0,8,8,8,1,8,images/pixabay_cat_000100.jpg,images/pixabay_cat_000286.jpg,Jesse,001,2021-07-19_15h56.53.813,Cat face experiment_fully sample_601-900,2021.1.4,Win32,59.72645285
,,,,,,q,0.6861,0,9,9,9,1,9,images/flickr_cat_000581.jpg,images/pixabay_cat_004182.jpg,Jesse,001,2021-07-19_15h56.53.813,Cat face experiment_fully sample_601-900,2021.1.4,Win32,59.72645285
,,,,,,q,0.7385,0,10,10,10,1,10,images/pixabay_cat_003228.jpg,images/flickr_cat_000271.jpg,Jesse,001,2021-07-19_15h56.53.813,Cat face experiment_fully sample_601-900,2021.1.4,Win32,59.72645285
,,,,,,q,0.5764,0,11,11,11,1,11,images/pixabay_cat_002045.jpg,images/flickr_cat_000271.jpg,Jesse,001,2021-07-19_15h56.53.813,Cat face experiment_fully sample_601-900,2021.1.4,Win32,59.72645285
,,,,,,q,0.8286,0,12,12,12,1,12,images/pixabay_cat_000411.jpg,images/pixabay_cat_003077.jpg,Jesse,001,2021-07-19_15h56.53.813,Cat face experiment_fully sample_601-900,2021.1.4,Win32,59.72645285
,,,,,,q,0.7163,0,13,13,13,1,13,images/pixabay_cat_002690.jpg,images/pixabay_cat_001304.jpg,Jesse,001,2021-07-19_15h56.53.813,Cat face experiment_fully sample_601-900,2021.1.4,Win32,59.72645285
,,,,,,p,0.7013,0,14,14,14,1,14,images/pixabay_cat_001597.jpg,images/flickr_cat_000083.jpg,Jesse,001,2021-07-19_15h56.53.813,Cat face experiment_fully sample_601-900,2021.1.4,Win32,59.72645285
,,,,,,p,0.6878,0,15,15,15,1,15,images/pixabay_cat_000120.jpg,images/pixabay_cat_001304.jpg,Jesse,001,2021-07-19_15h56.53.813,Cat face experiment_fully sample_601-900,2021.1.4,Win32,59.72645285
,,,,,,p,0.6412,0,16,16,16,1,16,images/pixabay_cat_004049.jpg,images/pixabay_cat_001805.jpg,Jesse,001,2021-07-19_15h56.53.813,Cat face experiment_fully sample_601-900,2021.1.4,Win32,59.72645285
,,,,,,p,0.7598,0,17,17,17,1,17,images/pixabay_cat_003228.jpg,images/pixabay_cat_001597.jpg,Jesse,001,2021-07-19_15h56.53.813,Cat face experiment_fully sample_601-900,2021.1.4,Win32,59.72645285
,,,,,,q,0.7144,0,18,18,18,1,18,images/pixabay_cat_000260.jpg,images/flickr_cat_000206.jpg,Jesse,001,2021-07-19_15h56.53.813,Cat face experiment_fully sample_601-900,2021.1.4,Win32,59.72645285
,,,,,,p,0.7174,0,19,19,19,1,19,images/pixabay_cat_002601.jpg,images/pixabay_cat_001304.jpg,Jesse,001,2021-07-19_15h56.53.813,Cat face experiment_fully sample_601-900,2021.1.4,Win32,59.72645285
,,,,,,p,0.8012,0,20,20,20,1,20,images/pixabay_cat_003186.jpg,images/pixabay_cat_004489.jpg,Jesse,001,2021-07-19_15h56.53.813,Cat face experiment_fully sample_601-900,2021.1.4,Win32,59.72645285
,,,,,,p,0.7053,0,21,21,21,1,21,images/flickr_cat_000271.jpg,images/pixabay_cat_003927.jpg,Jesse,001,2021-07-19_15h56.53.813,Cat face experiment_fully sample_601-900,2021.1.4,Win32,59.72645285
,,,,,,q,0.8722,0,22,22,22,1,22,images/flickr_cat_000581.jpg,images/pixabay_cat_002979.jpg,Jesse,001,2021-07-19_15h56.53.813,Cat face experiment_fully sample_601-900,2021.1.4,Win32,59.72645285
,,,,,,p,0.6758,0,23,23,23,1,23,images/pixabay_cat_001102.jpg,images/pixabay_cat_003638.jpg,Jesse,001,2021-07-19_15h56.53.813,Cat face experiment_fully sample_601-900,2021.1.4,Win32,59.72645285
,,,,,,p,0.7131,0,24,24,24,1,24,images/pixabay_cat_003566.jpg,images/pixabay_cat_002979.jpg,Jesse,001,2021-07-19_15h56.53.813,Cat face experiment_fully sample_601-900,2021.1.4,Win32,59.72645285
,,,,,,p,0.9131,0,25,25,25,1,25,images/pixabay_cat_002601.jpg,images/pixabay_cat_000043.jpg,Jesse,001,2021-07-19_15h56.53.813,Cat face experiment_fully sample_601-900,2021.1.4,Win32,59.72645285
,,,,,,p,0.7834,0,26,26,26,1,26,images/flickr_cat_000206.jpg,images/pixabay_cat_001284.jpg,Jesse,001,2021-07-19_15h56.53.813,Cat face experiment_fully sample_601-900,2021.1.4,Win32,59.72645285
,,,,,,p,0.7672,0,27,27,27,1,27,images/pixabay_cat_001502.jpg,images/pixabay_cat_003927.jpg,Jesse,001,2021-07-19_15h56.53.813,Cat face experiment_fully sample_601-900,2021.1.4,Win32,59.72645285
,,,,,,p,0.8169,0,28,28,28,1,28,images/pixabay_cat_001265.jpg,images/pixabay_cat_001805.jpg,Jesse,001,2021-07-19_15h56.53.813,Cat face experiment_fully sample_601-900,2021.1.4,Win32,59.72645285
,,,,,,q,0.8368,0,29,29,29,1,29,images/flickr_cat_000022.jpg,images/pixabay_cat_001862.jpg,Jesse,001,2021-07-19_15h56.53.813,Cat face experiment_fully sample_601-900,2021.1.4,Win32,59.72645285
,,,,,,p,0.6405,0,30,30,30,1,30,images/pixabay_cat_003077.jpg,images/pixabay_cat_001265.jpg,Jesse,001,2021-07-19_15h56.53.813,Cat face experiment_fully sample_601-900,2021.1.4,Win32,59.72645285
,,,,,,q,0.6774,0,31,31,31,1,31,images/pixabay_cat_003228.jpg,images/pixabay_cat_000100.jpg,Jesse,001,2021-07-19_15h56.53.813,Cat face experiment_fully sample_601-900,2021.1.4,Win32,59.72645285
,,,,,,p,0.7631,0,32,32,32,1,32,images/pixabay_cat_003228.jpg,images/pixabay_cat_003425.jpg,Jesse,001,2021-07-19_15h56.53.813,Cat face experiment_fully sample_601-900,2021.1.4,Win32,59.72645285
,,,,,,q,0.8306,0,33,33,33,1,33,images/pixabay_cat_000260.jpg,images/pixabay_cat_004489.jpg,Jesse,001,2021-07-19_15h56.53.813,Cat face experiment_fully sample_601-900,2021.1.4,Win32,59.72645285
,,,,,,q,0.7333,0,34,34,34,1,34,images/flickr_cat_000285.jpg,images/pixabay_cat_002930.jpg,Jesse,001,2021-07-19_15h56.53.813,Cat face experiment_fully sample_601-900,2021.1.4,Win32,59.72645285
,,,,,,p,0.7022,0,35,35,35,1,35,images/pixabay_cat_001502.jpg,images/pixabay_cat_003566.jpg,Jesse,001,2021-07-19_15h56.53.813,Cat face experiment_fully sample_601-900,2021.1.4,Win32,59.72645285
,,,,,,p,0.7373,0,36,36,36,1,36,images/pixabay_cat_003228.jpg,images/pixabay_cat_001265.jpg,Jesse,001,2021-07-19_15h56.53.813,Cat face experiment_fully sample_601-900,2021.1.4,Win32,59.72645285
,,,,,,p,0.7736,0,37,37,37,1,37,images/pixabay_cat_000120.jpg,images/flickr_cat_000285.jpg,Jesse,001,2021-07-19_15h56.53.813,Cat face experiment_fully sample_601-900,2021.1.4,Win32,59.72645285
,,,,,,q,0.8245,0,38,38,38,1,38,images/pixabay_cat_001304.jpg,images/pixabay_cat_001862.jpg,Jesse,001,2021-07-19_15h56.53.813,Cat face experiment_fully sample_601-900,2021.1.4,Win32,59.72645285
,,,,,,p,0.6448,0,39,39,39,1,39,images/pixabay_cat_003635.jpg,images/pixabay_cat_001304.jpg,Jesse,001,2021-07-19_15h56.53.813,Cat face experiment_fully sample_601-900,2021.1.4,Win32,59.72645285
,,,,,,p,0.6669,0,40,40,40,1,40,images/pixabay_cat_003635.jpg,images/pixabay_cat_001265.jpg,Jesse,001,2021-07-19_15h56.53.813,Cat face experiment_fully sample_601-900,2021.1.4,Win32,59.72645285
,,,,,,q,0.8332,0,41,41,41,1,41,images/pixabay_cat_003186.jpg,images/pixabay_cat_002045.jpg,Jesse,001,2021-07-19_15h56.53.813,Cat face experiment_fully sample_601-900,2021.1.4,Win32,59.72645285
,,,,,,p,0.768,0,42,42,42,1,42,images/pixabay_cat_000411.jpg,images/pixabay_cat_003927.jpg,Jesse,001,2021-07-19_15h56.53.813,Cat face experiment_fully sample_601-900,2021.1.4,Win32,59.72645285
,,,,,,p,0.7046,0,43,43,43,1,43,images/pixabay_cat_000411.jpg,images/pixabay_cat_002045.jpg,Jesse,001,2021-07-19_15h56.53.813,Cat face experiment_fully sample_601-900,2021.1.4,Win32,59.72645285
,,,,,,q,0.8227,0,44,44,44,1,44,images/pixabay_cat_002045.jpg,images/pixabay_cat_002979.jpg,Jesse,001,2021-07-19_15h56.53.813,Cat face experiment_fully sample_601-900,2021.1.4,Win32,59.72645285
,,,,,,p,0.725,0,45,45,45,1,45,images/pixabay_cat_001265.jpg,images/pixabay_cat_001304.jpg,Jesse,001,2021-07-19_15h56.53.813,Cat face experiment_fully sample_601-900,2021.1.4,Win32,59.72645285
,,,,,,q,0.6951,0,46,46,46,1,46,images/flickr_cat_000083.jpg,images/pixabay_cat_001160.jpg,Jesse,001,2021-07-19_15h56.53.813,Cat face experiment_fully sample_601-900,2021.1.4,Win32,59.72645285
,,,,,,p,0.8127,0,47,47,47,1,47,images/pixabay_cat_000260.jpg,images/pixabay_cat_001102.jpg,Jesse,001,2021-07-19_15h56.53.813,Cat face experiment_fully sample_601-900,2021.1.4,Win32,59.72645285
,,,,,,q,0.7666,0,48,48,48,1,48,images/pixabay_cat_000411.jpg,images/pixabay_cat_003635.jpg,Jesse,001,2021-07-19_15h56.53.813,Cat face experiment_fully sample_601-900,2021.1.4,Win32,59.72645285
,,,,,,q,0.8334,0,49,49,49,1,49,images/pixabay_cat_002690.jpg,images/flickr_cat_000083.jpg,Jesse,001,2021-07-19_15h56.53.813,Cat face experiment_fully sample_601-900,2021.1.4,Win32,59.72645285
,,,,,,p,0.7836,0,50,50,50,1,50,images/pixabay_cat_003121.jpg,images/pixabay_cat_000286.jpg,Jesse,001,2021-07-19_15h56.53.813,Cat face experiment_fully sample_601-900,2021.1.4,Win32,59.72645285
,,,,,,p,0.7683,0,51,51,51,1,51,images/pixabay_cat_003635.jpg,images/flickr_cat_000240.jpg,Jesse,001,2021-07-19_15h56.53.813,Cat face experiment_fully sample_601-900,2021.1.4,Win32,59.72645285
,,,,,,p,0.7335,0,52,52,52,1,52,images/pixabay_cat_003228.jpg,images/flickr_cat_000266.jpg,Jesse,001,2021-07-19_15h56.53.813,Cat face experiment_fully sample_601-900,2021.1.4,Win32,59.72645285
,,,,,,q,1.1017,0,53,53,53,1,53,images/flickr_cat_000206.jpg,images/pixabay_cat_002300.jpg,Jesse,001,2021-07-19_15h56.53.813,Cat face experiment_fully sample_601-900,2021.1.4,Win32,59.72645285
,,,,,,p,0.9,0,54,54,54,1,54,images/pixabay_cat_003927.jpg,images/pixabay_cat_002930.jpg,Jesse,001,2021-07-19_15h56.53.813,Cat face experiment_fully sample_601-900,2021.1.4,Win32,59.72645285
,,,,,,p,0.7352,0,55,55,55,1,55,images/pixabay_cat_001102.jpg,images/flickr_cat_000285.jpg,Jesse,001,2021-07-19_15h56.53.813,Cat face experiment_fully sample_601-900,2021.1.4,Win32,59.72645285
,,,,,,q,0.9345,0,56,56,56,1,56,images/flickr_cat_000266.jpg,images/pixabay_cat_001304.jpg,Jesse,001,2021-07-19_15h56.53.813,Cat face experiment_fully sample_601-900,2021.1.4,Win32,59.72645285
,,,,,,p,0.8515,0,57,57,57,1,57,images/flickr_cat_000206.jpg,images/flickr_cat_000083.jpg,Jesse,001,2021-07-19_15h56.53.813,Cat face experiment_fully sample_601-900,2021.1.4,Win32,59.72645285
,,,,,,q,0.9837,0,58,58,58,1,58,images/pixabay_cat_001102.jpg,images/pixabay_cat_000100.jpg,Jesse,001,2021-07-19_15h56.53.813,Cat face experiment_fully sample_601-900,2021.1.4,Win32,59.72645285
,,,,,,q,1.03,0,59,59,59,1,59,images/flickr_cat_000581.jpg,images/pixabay_cat_002614.jpg,Jesse,001,2021-07-19_15h56.53.813,Cat face experiment_fully sample_601-900,2021.1.4,Win32,59.72645285
,,,,,,q,0.995,0,60,60,60,1,60,images/pixabay_cat_000260.jpg,images/pixabay_cat_003927.jpg,Jesse,001,2021-07-19_15h56.53.813,Cat face experiment_fully sample_601-900,2021.1.4,Win32,59.72645285
,,,,,,q,0.8771,0,61,61,61,1,61,images/pixabay_cat_003566.jpg,images/flickr_cat_000083.jpg,Jesse,001,2021-07-19_15h56.53.813,Cat face experiment_fully sample_601-900,2021.1.4,Win32,59.72645285
,,,,,,q,0.9425,0,62,62,62,1,62,images/pixabay_cat_004641.jpg,images/flickr_cat_000285.jpg,Jesse,001,2021-07-19_15h56.53.813,Cat face experiment_fully sample_601-900,2021.1.4,Win32,59.72645285
,,,,,,q,0.8434,0,63,63,63,1,63,images/pixabay_cat_004049.jpg,images/pixabay_cat_002614.jpg,Jesse,001,2021-07-19_15h56.53.813,Cat face experiment_fully sample_601-900,2021.1.4,Win32,59.72645285
,,,,,,q,1.0568,0,64,64,64,1,64,images/flickr_cat_000240.jpg,images/pixabay_cat_000883.jpg,Jesse,001,2021-07-19_15h56.53.813,Cat face experiment_fully sample_601-900,2021.1.4,Win32,59.72645285
,,,,,,p,1.0542,0,65,65,65,1,65,images/pixabay_cat_003425.jpg,images/pixabay_cat_001265.jpg,Jesse,001,2021-07-19_15h56.53.813,Cat face experiment_fully sample_601-900,2021.1.4,Win32,59.72645285
,,,,,,p,0.9199,0,66,66,66,1,66,images/flickr_cat_000022.jpg,images/pixabay_cat_001304.jpg,Jesse,001,2021-07-19_15h56.53.813,Cat face experiment_fully sample_601-900,2021.1.4,Win32,59.72645285
,,,,,,p,0.9194,0,67,67,67,1,67,images/pixabay_cat_001102.jpg,images/pixabay_cat_003566.jpg,Jesse,001,2021-07-19_15h56.53.813,Cat face experiment_fully sample_601-900,2021.1.4,Win32,59.72645285
,,,,,,p,0.9335,0,68,68,68,1,68,images/pixabay_cat_004489.jpg,images/flickr_cat_000285.jpg,Jesse,001,2021-07-19_15h56.53.813,Cat face experiment_fully sample_601-900,2021.1.4,Win32,59.72645285
,,,,,,p,0.8697,0,69,69,69,1,69,images/pixabay_cat_002601.jpg,images/pixabay_cat_004148.jpg,Jesse,001,2021-07-19_15h56.53.813,Cat face experiment_fully sample_601-900,2021.1.4,Win32,59.72645285
,,,,,,q,0.8205,0,70,70,70,1,70,images/pixabay_cat_003635.jpg,images/pixabay_cat_003186.jpg,Jesse,001,2021-07-19_15h56.53.813,Cat face experiment_fully sample_601-900,2021.1.4,Win32,59.72645285
,,,,,,q,0.8711,0,71,71,71,1,71,images/pixabay_cat_000043.jpg,images/pixabay_cat_000120.jpg,Jesse,001,2021-07-19_15h56.53.813,Cat face experiment_fully sample_601-900,2021.1.4,Win32,59.72645285
,,,,,,p,0.8224,0,72,72,72,1,72,images/flickr_cat_000285.jpg,images/pixabay_cat_002979.jpg,Jesse,001,2021-07-19_15h56.53.813,Cat face experiment_fully sample_601-900,2021.1.4,Win32,59.72645285
,,,,,,q,1.0845,0,73,73,73,1,73,images/pixabay_cat_003312.jpg,images/pixabay_cat_002930.jpg,Jesse,001,2021-07-19_15h56.53.813,Cat face experiment_fully sample_601-900,2021.1.4,Win32,59.72645285
,,,,,,p,0.8848,0,74,74,74,1,74,images/pixabay_cat_004148.jpg,images/pixabay_cat_001862.jpg,Jesse,001,2021-07-19_15h56.53.813,Cat face experiment_fully sample_601-900,2021.1.4,Win32,59.72645285
,,,,,,p,1.1142,0,75,75,75,1,75,images/pixabay_cat_004292.jpg,images/pixabay_cat_002300.jpg,Jesse,001,2021-07-19_15h56.53.813,Cat face experiment_fully sample_601-900,2021.1.4,Win32,59.72645285
,,,,,,p,0.8477,0,76,76,76,1,76,images/flickr_cat_000083.jpg,images/pixabay_cat_003927.jpg,Jesse,001,2021-07-19_15h56.53.813,Cat face experiment_fully sample_601-900,2021.1.4,Win32,59.72645285
,,,,,,p,0.7499,0,77,77,77,1,77,images/pixabay_cat_001284.jpg,images/pixabay_cat_000286.jpg,Jesse,001,2021-07-19_15h56.53.813,Cat face experiment_fully sample_601-900,2021.1.4,Win32,59.72645285
,,,,,,q,0.9166,0,78,78,78,1,78,images/pixabay_cat_004641.jpg,images/pixabay_cat_001160.jpg,Jesse,001,2021-07-19_15h56.53.813,Cat face experiment_fully sample_601-900,2021.1.4,Win32,59.72645285
,,,,,,p,1.2756,0,79,79,79,1,79,images/pixabay_cat_001160.jpg,images/pixabay_cat_003121.jpg,Jesse,001,2021-07-19_15h56.53.813,Cat face experiment_fully sample_601-900,2021.1.4,Win32,59.72645285
,,,,,,q,1.1059,0,80,80,80,1,80,images/flickr_cat_000285.jpg,images/flickr_cat_000206.jpg,Jesse,001,2021-07-19_15h56.53.813,Cat face experiment_fully sample_601-900,2021.1.4,Win32,59.72645285
,,,,,,p,0.8383,0,81,81,81,1,81,images/flickr_cat_000266.jpg,images/flickr_cat_000083.jpg,Jesse,001,2021-07-19_15h56.53.813,Cat face experiment_fully sample_601-900,2021.1.4,Win32,59.72645285
,,,,,,p,0.8719,0,82,82,82,1,82,images/pixabay_cat_000411.jpg,images/pixabay_cat_001805.jpg,Jesse,001,2021-07-19_15h56.53.813,Cat face experiment_fully sample_601-900,2021.1.4,Win32,59.72645285
,,,,,,p,1.037,0,83,83,83,1,83,images/pixabay_cat_002045.jpg,images/pixabay_cat_003927.jpg,Jesse,001,2021-07-19_15h56.53.813,Cat face experiment_fully sample_601-900,2021.1.4,Win32,59.72645285
,,,,,,q,1.1335,0,84,84,84,1,84,images/pixabay_cat_001502.jpg,images/pixabay_cat_002614.jpg,Jesse,001,2021-07-19_15h56.53.813,Cat face experiment_fully sample_601-900,2021.1.4,Win32,59.72645285
,,,,,,q,0.8334,0,85,85,85,1,85,images/flickr_cat_000266.jpg,images/pixabay_cat_001597.jpg,Jesse,001,2021-07-19_15h56.53.813,Cat face experiment_fully sample_601-900,2021.1.4,Win32,59.72645285
,,,,,,q,1.2099,0,86,86,86,1,86,images/pixabay_cat_002601.jpg,images/pixabay_cat_002300.jpg,Jesse,001,2021-07-19_15h56.53.813,Cat face experiment_fully sample_601-900,2021.1.4,Win32,59.72645285
,,,,,,q,0.8774,0,87,87,87,1,87,images/pixabay_cat_003425.jpg,images/pixabay_cat_001805.jpg,Jesse,001,2021-07-19_15h56.53.813,Cat face experiment_fully sample_601-900,2021.1.4,Win32,59.72645285
,,,,,,p,0.8777,0,88,88,88,1,88,images/pixabay_cat_004641.jpg,images/pixabay_cat_002300.jpg,Jesse,001,2021-07-19_15h56.53.813,Cat face experiment_fully sample_601-900,2021.1.4,Win32,59.72645285
,,,,,,p,0.8835,0,89,89,89,1,89,images/pixabay_cat_002601.jpg,images/pixabay_cat_001862.jpg,Jesse,001,2021-07-19_15h56.53.813,Cat face experiment_fully sample_601-900,2021.1.4,Win32,59.72645285
,,,,,,q,0.7001,0,90,90,90,1,90,images/pixabay_cat_001597.jpg,images/flickr_cat_000285.jpg,Jesse,001,2021-07-19_15h56.53.813,Cat face experiment_fully sample_601-900,2021.1.4,Win32,59.72645285
,,,,,,p,0.9471,0,91,91,91,1,91,images/pixabay_cat_004292.jpg,images/pixabay_cat_003228.jpg,Jesse,001,2021-07-19_15h56.53.813,Cat face experiment_fully sample_601-900,2021.1.4,Win32,59.72645285
,,,,,,q,1.2078,0,92,92,92,1,92,images/pixabay_cat_002690.jpg,images/pixabay_cat_002300.jpg,Jesse,001,2021-07-19_15h56.53.813,Cat face experiment_fully sample_601-900,2021.1.4,Win32,59.72645285
,,,,,,p,0.7937,0,93,93,93,1,93,images/pixabay_cat_003121.jpg,images/pixabay_cat_001304.jpg,Jesse,001,2021-07-19_15h56.53.813,Cat face experiment_fully sample_601-900,2021.1.4,Win32,59.72645285
,,,,,,q,0.7952,0,94,94,94,1,94,images/pixabay_cat_000883.jpg,images/pixabay_cat_000286.jpg,Jesse,001,2021-07-19_15h56.53.813,Cat face experiment_fully sample_601-900,2021.1.4,Win32,59.72645285
,,,,,,q,0.8128,0,95,95,95,1,95,images/pixabay_cat_001265.jpg,images/pixabay_cat_001284.jpg,Jesse,001,2021-07-19_15h56.53.813,Cat face experiment_fully sample_601-900,2021.1.4,Win32,59.72645285
,,,,,,p,0.7665,0,96,96,96,1,96,images/pixabay_cat_001502.jpg,images/pixabay_cat_001265.jpg,Jesse,001,2021-07-19_15h56.53.813,Cat face experiment_fully sample_601-900,2021.1.4,Win32,59.72645285
,,,,,,q,0.9153,0,97,97,97,1,97,images/pixabay_cat_001502.jpg,images/pixabay_cat_001178.jpg,Jesse,001,2021-07-19_15h56.53.813,Cat face experiment_fully sample_601-900,2021.1.4,Win32,59.72645285
,,,,,,p,0.7518,0,98,98,98,1,98,images/pixabay_cat_002601.jpg,images/flickr_cat_000271.jpg,Jesse,001,2021-07-19_15h56.53.813,Cat face experiment_fully sample_601-900,2021.1.4,Win32,59.72645285
,,,,,,q,0.7866,0,99,99,99,1,99,images/pixabay_cat_001265.jpg,images/flickr_cat_000240.jpg,Jesse,001,2021-07-19_15h56.53.813,Cat face experiment_fully sample_601-900,2021.1.4,Win32,59.72645285
,,,,,,q,0.7879,0,100,100,100,1,100,images/pixabay_cat_000120.jpg,images/pixabay_cat_004148.jpg,Jesse,001,2021-07-19_15h56.53.813,Cat face experiment_fully sample_601-900,2021.1.4,Win32,59.72645285
,,,,,,p,0.7898,0,101,101,101,1,101,images/pixabay_cat_003077.jpg,images/pixabay_cat_001178.jpg,Jesse,001,2021-07-19_15h56.53.813,Cat face experiment_fully sample_601-900,2021.1.4,Win32,59.72645285
,,,,,,q,0.8413,0,102,102,102,1,102,images/flickr_cat_000581.jpg,images/pixabay_cat_003927.jpg,Jesse,001,2021-07-19_15h56.53.813,Cat face experiment_fully sample_601-900,2021.1.4,Win32,59.72645285
,,,,,,p,0.8592,0,103,103,103,1,103,images/pixabay_cat_004292.jpg,images/pixabay_cat_001178.jpg,Jesse,001,2021-07-19_15h56.53.813,Cat face experiment_fully sample_601-900,2021.1.4,Win32,59.72645285
,,,,,,p,1.0231,0,104,104,104,1,104,images/pixabay_cat_003077.jpg,images/pixabay_cat_002614.jpg,Jesse,001,2021-07-19_15h56.53.813,Cat face experiment_fully sample_601-900,2021.1.4,Win32,59.72645285
,,,,,,q,0.8498,0,105,105,105,1,105,images/pixabay_cat_001178.jpg,images/pixabay_cat_003312.jpg,Jesse,001,2021-07-19_15h56.53.813,Cat face experiment_fully sample_601-900,2021.1.4,Win32,59.72645285
,,,,,,p,0.8906,0,106,106,106,1,106,images/pixabay_cat_001502.jpg,images/pixabay_cat_001160.jpg,Jesse,001,2021-07-19_15h56.53.813,Cat face experiment_fully sample_601-900,2021.1.4,Win32,59.72645285
,,,,,,p,0.7102,0,107,107,107,1,107,images/pixabay_cat_002601.jpg,images/flickr_cat_000240.jpg,Jesse,001,2021-07-19_15h56.53.813,Cat face experiment_fully sample_601-900,2021.1.4,Win32,59.72645285
,,,,,,p,1.0575,0,108,108,108,1,108,images/pixabay_cat_002690.jpg,images/pixabay_cat_004489.jpg,Jesse,001,2021-07-19_15h56.53.813,Cat face experiment_fully sample_601-900,2021.1.4,Win32,59.72645285
,,,,,,q,0.8899,0,109,109,109,1,109,images/pixabay_cat_004489.jpg,images/flickr_cat_000206.jpg,Jesse,001,2021-07-19_15h56.53.813,Cat face experiment_fully sample_601-900,2021.1.4,Win32,59.72645285
,,,,,,p,0.8733,0,110,110,110,1,110,images/pixabay_cat_003186.jpg,images/pixabay_cat_002979.jpg,Jesse,001,2021-07-19_15h56.53.813,Cat face experiment_fully sample_601-900,2021.1.4,Win32,59.72645285
,,,,,,p,0.857,0,111,111,111,1,111,images/pixabay_cat_003228.jpg,images/pixabay_cat_001206.jpg,Jesse,001,2021-07-19_15h56.53.813,Cat face experiment_fully sample_601-900,2021.1.4,Win32,59.72645285
,,,,,,p,0.7758,0,112,112,112,1,112,images/pixabay_cat_003228.jpg,images/pixabay_cat_000883.jpg,Jesse,001,2021-07-19_15h56.53.813,Cat face experiment_fully sample_601-900,2021.1.4,Win32,59.72645285
,,,,,,p,0.876,0,113,113,113,1,113,images/pixabay_cat_000260.jpg,images/flickr_cat_000285.jpg,Jesse,001,2021-07-19_15h56.53.813,Cat face experiment_fully sample_601-900,2021.1.4,Win32,59.72645285
,,,,,,p,0.7667,0,114,114,114,1,114,images/pixabay_cat_003186.jpg,images/pixabay_cat_001284.jpg,Jesse,001,2021-07-19_15h56.53.813,Cat face experiment_fully sample_601-900,2021.1.4,Win32,59.72645285
,,,,,,p,0.8109,0,115,115,115,1,115,images/pixabay_cat_001502.jpg,images/flickr_cat_000285.jpg,Jesse,001,2021-07-19_15h56.53.813,Cat face experiment_fully sample_601-900,2021.1.4,Win32,59.72645285
,,,,,,p,0.7472,0,116,116,116,1,116,images/pixabay_cat_002601.jpg,images/pixabay_cat_002045.jpg,Jesse,001,2021-07-19_15h56.53.813,Cat face experiment_fully sample_601-900,2021.1.4,Win32,59.72645285
,,,,,,q,0.7998,0,117,117,117,1,117,images/pixabay_cat_004641.jpg,images/pixabay_cat_000100.jpg,Jesse,001,2021-07-19_15h56.53.813,Cat face experiment_fully sample_601-900,2021.1.4,Win32,59.72645285
,,,,,,q,0.8832,0,118,118,118,1,118,images/flickr_cat_000266.jpg,images/pixabay_cat_003077.jpg,Jesse,001,2021-07-19_15h56.53.813,Cat face experiment_fully sample_601-900,2021.1.4,Win32,59.72645285
,,,,,,q,0.9332,0,119,119,119,1,119,images/pixabay_cat_004292.jpg,images/pixabay_cat_004049.jpg,Jesse,001,2021-07-19_15h56.53.813,Cat face experiment_fully sample_601-900,2021.1.4,Win32,59.72645285
,,,,,,p,0.9629,0,120,120,120,1,120,images/pixabay_cat_001265.jpg,images/pixabay_cat_000286.jpg,Jesse,001,2021-07-19_15h56.53.813,Cat face experiment_fully sample_601-900,2021.1.4,Win32,59.72645285
,,,,,,q,0.9933,0,121,121,121,1,121,images/pixabay_cat_003638.jpg,images/pixabay_cat_000883.jpg,Jesse,001,2021-07-19_15h56.53.813,Cat face experiment_fully sample_601-900,2021.1.4,Win32,59.72645285
,,,,,,q,0.9261,0,122,122,122,1,122,images/flickr_cat_000200.jpg,images/pixabay_cat_002930.jpg,Jesse,001,2021-07-19_15h56.53.813,Cat face experiment_fully sample_601-900,2021.1.4,Win32,59.72645285
,,,,,,q,1.1221,0,123,123,123,1,123,images/pixabay_cat_003228.jpg,images/pixabay_cat_001102.jpg,Jesse,001,2021-07-19_15h56.53.813,Cat face experiment_fully sample_601-900,2021.1.4,Win32,59.72645285
,,,,,,p,0.8231,0,124,124,124,1,124,images/flickr_cat_000022.jpg,images/pixabay_cat_002045.jpg,Jesse,001,2021-07-19_15h56.53.813,Cat face experiment_fully sample_601-900,2021.1.4,Win32,59.72645285
,,,,,,p,1.0214,0,125,125,125,1,125,images/pixabay_cat_003077.jpg,images/pixabay_cat_004182.jpg,Jesse,001,2021-07-19_15h56.53.813,Cat face experiment_fully sample_601-900,2021.1.4,Win32,59.72645285
,,,,,,q,1.1338,0,126,126,126,1,126,images/pixabay_cat_002690.jpg,images/pixabay_cat_002614.jpg,Jesse,001,2021-07-19_15h56.53.813,Cat face experiment_fully sample_601-900,2021.1.4,Win32,59.72645285
,,,,,,p,0.7518,0,127,127,127,1,127,images/pixabay_cat_001178.jpg,images/pixabay_cat_001862.jpg,Jesse,001,2021-07-19_15h56.53.813,Cat face experiment_fully sample_601-900,2021.1.4,Win32,59.72645285
,,,,,,p,0.7209,0,128,128,128,1,128,images/pixabay_cat_001102.jpg,images/flickr_cat_000083.jpg,Jesse,001,2021-07-19_15h56.53.813,Cat face experiment_fully sample_601-900,2021.1.4,Win32,59.72645285
,,,,,,q,0.7401,0,129,129,129,1,129,images/pixabay_cat_001597.jpg,images/pixabay_cat_001265.jpg,Jesse,001,2021-07-19_15h56.53.813,Cat face experiment_fully sample_601-900,2021.1.4,Win32,59.72645285
,,,,,,p,0.955,0,130,130,130,1,130,images/pixabay_cat_000260.jpg,images/pixabay_cat_004182.jpg,Jesse,001,2021-07-19_15h56.53.813,Cat face experiment_fully sample_601-900,2021.1.4,Win32,59.72645285
,,,,,,q,0.8384,0,131,131,131,1,131,images/pixabay_cat_003566.jpg,images/pixabay_cat_001597.jpg,Jesse,001,2021-07-19_15h56.53.813,Cat face experiment_fully sample_601-900,2021.1.4,Win32,59.72645285
,,,,,,q,0.8895,0,132,132,132,1,132,images/pixabay_cat_003121.jpg,images/pixabay_cat_003312.jpg,Jesse,001,2021-07-19_15h56.53.813,Cat face experiment_fully sample_601-900,2021.1.4,Win32,59.72645285
,,,,,,q,0.9868,0,133,133,133,1,133,images/pixabay_cat_003566.jpg,images/pixabay_cat_003121.jpg,Jesse,001,2021-07-19_15h56.53.813,Cat face experiment_fully sample_601-900,2021.1.4,Win32,59.72645285
,,,,,,q,1.1982,0,134,134,134,1,134,images/flickr_cat_000206.jpg,images/pixabay_cat_003927.jpg,Jesse,001,2021-07-19_15h56.53.813,Cat face experiment_fully sample_601-900,2021.1.4,Win32,59.72645285
,,,,,,p,0.9636,0,135,135,135,1,135,images/pixabay_cat_003635.jpg,images/pixabay_cat_004641.jpg,Jesse,001,2021-07-19_15h56.53.813,Cat face experiment_fully sample_601-900,2021.1.4,Win32,59.72645285
,,,,,,p,0.847,0,136,136,136,1,136,images/pixabay_cat_000260.jpg,images/pixabay_cat_000100.jpg,Jesse,001,2021-07-19_15h56.53.813,Cat face experiment_fully sample_601-900,2021.1.4,Win32,59.72645285
,,,,,,q,0.8809,0,137,137,137,1,137,images/pixabay_cat_004641.jpg,images/pixabay_cat_001178.jpg,Jesse,001,2021-07-19_15h56.53.813,Cat face experiment_fully sample_601-900,2021.1.4,Win32,59.72645285
,,,,,,p,0.7668,0,138,138,138,1,138,images/pixabay_cat_003186.jpg,images/flickr_cat_000285.jpg,Jesse,001,2021-07-19_15h56.53.813,Cat face experiment_fully sample_601-900,2021.1.4,Win32,59.72645285
,,,,,,q,0.8835,0,139,139,139,1,139,images/pixabay_cat_000043.jpg,images/pixabay_cat_003077.jpg,Jesse,001,2021-07-19_15h56.53.813,Cat face experiment_fully sample_601-900,2021.1.4,Win32,59.72645285
,,,,,,q,0.8332,0,140,140,140,1,140,images/flickr_cat_000022.jpg,images/pixabay_cat_003186.jpg,Jesse,001,2021-07-19_15h56.53.813,Cat face experiment_fully sample_601-900,2021.1.4,Win32,59.72645285
,,,,,,q,0.736,0,141,141,141,1,141,images/pixabay_cat_003566.jpg,images/pixabay_cat_001178.jpg,Jesse,001,2021-07-19_15h56.53.813,Cat face experiment_fully sample_601-900,2021.1.4,Win32,59.72645285
,,,,,,q,0.6887,0,142,142,142,1,142,images/pixabay_cat_002045.jpg,images/pixabay_cat_001284.jpg,Jesse,001,2021-07-19_15h56.53.813,Cat face experiment_fully sample_601-900,2021.1.4,Win32,59.72645285
,,,,,,p,0.7415,0,143,143,143,1,143,images/flickr_cat_000266.jpg,images/pixabay_cat_003927.jpg,Jesse,001,2021-07-19_15h56.53.813,Cat face experiment_fully sample_601-900,2021.1.4,Win32,59.72645285
,,,,,,q,0.8253,0,144,144,144,1,144,images/pixabay_cat_001502.jpg,images/pixabay_cat_003312.jpg,Jesse,001,2021-07-19_15h56.53.813,Cat face experiment_fully sample_601-900,2021.1.4,Win32,59.72645285
,,,,,,q,0.8759,0,145,145,145,1,145,images/pixabay_cat_000411.jpg,images/pixabay_cat_002601.jpg,Jesse,001,2021-07-19_15h56.53.813,Cat face experiment_fully sample_601-900,2021.1.4,Win32,59.72645285
,,,,,,p,1.0054,0,146,146,146,1,146,images/pixabay_cat_001265.jpg,images/pixabay_cat_001160.jpg,Jesse,001,2021-07-19_15h56.53.813,Cat face experiment_fully sample_601-900,2021.1.4,Win32,59.72645285
,,,,,,p,0.8564,0,147,147,147,1,147,images/pixabay_cat_003635.jpg,images/pixabay_cat_000043.jpg,Jesse,001,2021-07-19_15h56.53.813,Cat face experiment_fully sample_601-900,2021.1.4,Win32,59.72645285
,,,,,,q,1.0361,0,148,148,148,1,148,images/flickr_cat_000285.jpg,images/flickr_cat_000083.jpg,Jesse,001,2021-07-19_15h56.53.813,Cat face experiment_fully sample_601-900,2021.1.4,Win32,59.72645285
,,,,,,p,0.8528,0,149,149,149,1,149,images/pixabay_cat_003927.jpg,images/pixabay_cat_001284.jpg,Jesse,001,2021-07-19_15h56.53.813,Cat face experiment_fully sample_601-900,2021.1.4,Win32,59.72645285
,,,,,,q,0.8856,0,150,150,150,1,150,images/pixabay_cat_001502.jpg,images/pixabay_cat_004148.jpg,Jesse,001,2021-07-19_15h56.53.813,Cat face experiment_fully sample_601-900,2021.1.4,Win32,59.72645285
,,,,,,p,0.8029,0,151,151,151,1,151,images/flickr_cat_000271.jpg,images/pixabay_cat_001284.jpg,Jesse,001,2021-07-19_15h56.53.813,Cat face experiment_fully sample_601-900,2021.1.4,Win32,59.72645285
,,,,,,p,0.869,0,152,152,152,1,152,images/pixabay_cat_004049.jpg,images/pixabay_cat_000286.jpg,Jesse,001,2021-07-19_15h56.53.813,Cat face experiment_fully sample_601-900,2021.1.4,Win32,59.72645285
,,,,,,p,1.0668,0,153,153,153,1,153,images/pixabay_cat_001102.jpg,images/flickr_cat_000266.jpg,Jesse,001,2021-07-19_15h56.53.813,Cat face experiment_fully sample_601-900,2021.1.4,Win32,59.72645285
,,,,,,p,0.7832,0,154,154,154,1,154,images/pixabay_cat_004049.jpg,images/flickr_cat_000200.jpg,Jesse,001,2021-07-19_15h56.53.813,Cat face experiment_fully sample_601-900,2021.1.4,Win32,59.72645285
,,,,,,q,0.8983,0,155,155,155,1,155,images/flickr_cat_000285.jpg,images/flickr_cat_000200.jpg,Jesse,001,2021-07-19_15h56.53.813,Cat face experiment_fully sample_601-900,2021.1.4,Win32,59.72645285
,,,,,,p,0.8167,0,156,156,156,1,156,images/pixabay_cat_001597.jpg,images/pixabay_cat_000286.jpg,Jesse,001,2021-07-19_15h56.53.813,Cat face experiment_fully sample_601-900,2021.1.4,Win32,59.72645285
,,,,,,q,0.9171,0,157,157,157,1,157,images/flickr_cat_000083.jpg,images/pixabay_cat_000100.jpg,Jesse,001,2021-07-19_15h56.53.813,Cat face experiment_fully sample_601-900,2021.1.4,Win32,59.72645285
,,,,,,p,0.9957,0,158,158,158,1,158,images/pixabay_cat_003077.jpg,images/flickr_cat_000083.jpg,Jesse,001,2021-07-19_15h56.53.813,Cat face experiment_fully sample_601-900,2021.1.4,Win32,59.72645285
,,,,,,q,0.7498,0,159,159,159,1,159,images/flickr_cat_000581.jpg,images/pixabay_cat_000883.jpg,Jesse,001,2021-07-19_15h56.53.813,Cat face experiment_fully sample_601-900,2021.1.4,Win32,59.72645285
,,,,,,q,0.8499,0,160,160,160,1,160,images/pixabay_cat_002614.jpg,images/pixabay_cat_002300.jpg,Jesse,001,2021-07-19_15h56.53.813,Cat face experiment_fully sample_601-900,2021.1.4,Win32,59.72645285
,,,,,,q,0.7835,0,161,161,161,1,161,images/pixabay_cat_003425.jpg,images/pixabay_cat_000286.jpg,Jesse,001,2021-07-19_15h56.53.813,Cat face experiment_fully sample_601-900,2021.1.4,Win32,59.72645285
,,,,,,p,0.7351,0,162,162,162,1,162,images/pixabay_cat_001304.jpg,images/pixabay_cat_004182.jpg,Jesse,001,2021-07-19_15h56.53.813,Cat face experiment_fully sample_601-900,2021.1.4,Win32,59.72645285
,,,,,,p,0.8531,0,163,163,163,1,163,images/pixabay_cat_004292.jpg,images/flickr_cat_000022.jpg,Jesse,001,2021-07-19_15h56.53.813,Cat face experiment_fully sample_601-900,2021.1.4,Win32,59.72645285
,,,,,,q,0.7393,0,164,164,164,1,164,images/pixabay_cat_000411.jpg,images/pixabay_cat_004489.jpg,Jesse,001,2021-07-19_15h56.53.813,Cat face experiment_fully sample_601-900,2021.1.4,Win32,59.72645285
,,,,,,p,0.7253,0,165,165,165,1,165,images/flickr_cat_000083.jpg,images/pixabay_cat_001304.jpg,Jesse,001,2021-07-19_15h56.53.813,Cat face experiment_fully sample_601-900,2021.1.4,Win32,59.72645285
,,,,,,q,0.8089,0,166,166,166,1,166,images/pixabay_cat_001102.jpg,images/flickr_cat_000271.jpg,Jesse,001,2021-07-19_15h56.53.813,Cat face experiment_fully sample_601-900,2021.1.4,Win32,59.72645285
,,,,,,p,0.6802,0,167,167,167,1,167,images/pixabay_cat_004641.jpg,images/pixabay_cat_000883.jpg,Jesse,001,2021-07-19_15h56.53.813,Cat face experiment_fully sample_601-900,2021.1.4,Win32,59.72645285
,,,,,,q,0.7497,0,168,168,168,1,168,images/pixabay_cat_000411.jpg,images/flickr_cat_000240.jpg,Jesse,001,2021-07-19_15h56.53.813,Cat face experiment_fully sample_601-900,2021.1.4,Win32,59.72645285
,,,,,,q,0.7337,0,169,169,169,1,169,images/pixabay_cat_002930.jpg,images/pixabay_cat_004182.jpg,Jesse,001,2021-07-19_15h56.53.813,Cat face experiment_fully sample_601-900,2021.1.4,Win32,59.72645285
,,,,,,p,0.7864,0,170,170,170,1,170,images/pixabay_cat_002300.jpg,images/pixabay_cat_000286.jpg,Jesse,001,2021-07-19_15h56.53.813,Cat face experiment_fully sample_601-900,2021.1.4,Win32,59.72645285
,,,,,,q,0.6898,0,171,171,171,1,171,images/pixabay_cat_001502.jpg,images/pixabay_cat_003638.jpg,Jesse,001,2021-07-19_15h56.53.813,Cat face experiment_fully sample_601-900,2021.1.4,Win32,59.72645285
,,,,,,p,0.7901,0,172,172,172,1,172,images/pixabay_cat_001160.jpg,images/pixabay_cat_003927.jpg,Jesse,001,2021-07-19_15h56.53.813,Cat face experiment_fully sample_601-900,2021.1.4,Win32,59.72645285
,,,,,,q,0.8253,0,173,173,173,1,173,images/pixabay_cat_001102.jpg,images/pixabay_cat_000043.jpg,Jesse,001,2021-07-19_15h56.53.813,Cat face experiment_fully sample_601-900,2021.1.4,Win32,59.72645285
,,,,,,p,0.9563,0,174,174,174,1,174,images/pixabay_cat_001284.jpg,images/pixabay_cat_001805.jpg,Jesse,001,2021-07-19_15h56.53.813,Cat face experiment_fully sample_601-900,2021.1.4,Win32,59.72645285
,,,,,,q,0.8239,0,175,175,175,1,175,images/pixabay_cat_001178.jpg,images/pixabay_cat_000100.jpg,Jesse,001,2021-07-19_15h56.53.813,Cat face experiment_fully sample_601-900,2021.1.4,Win32,59.72645285
,,,,,,p,0.6934,0,176,176,176,1,176,images/pixabay_cat_003121.jpg,images/pixabay_cat_001805.jpg,Jesse,001,2021-07-19_15h56.53.813,Cat face experiment_fully sample_601-900,2021.1.4,Win32,59.72645285
,,,,,,q,0.7781,0,177,177,177,1,177,images/pixabay_cat_000043.jpg,images/pixabay_cat_004641.jpg,Jesse,001,2021-07-19_15h56.53.813,Cat face experiment_fully sample_601-900,2021.1.4,Win32,59.72645285
,,,,,,q,0.7805,0,178,178,178,1,178,images/pixabay_cat_002614.jpg,images/pixabay_cat_001160.jpg,Jesse,001,2021-07-19_15h56.53.813,Cat face experiment_fully sample_601-900,2021.1.4,Win32,59.72645285
,,,,,,p,0.6683,0,179,179,179,1,179,images/flickr_cat_000285.jpg,images/pixabay_cat_000286.jpg,Jesse,001,2021-07-19_15h56.53.813,Cat face experiment_fully sample_601-900,2021.1.4,Win32,59.72645285
,,,,,,q,0.6701,0,180,180,180,1,180,images/pixabay_cat_002690.jpg,images/pixabay_cat_003186.jpg,Jesse,001,2021-07-19_15h56.53.813,Cat face experiment_fully sample_601-900,2021.1.4,Win32,59.72645285
,,,,,,p,0.7884,0,181,181,181,1,181,images/pixabay_cat_001102.jpg,images/pixabay_cat_004182.jpg,Jesse,001,2021-07-19_15h56.53.813,Cat face experiment_fully sample_601-900,2021.1.4,Win32,59.72645285
,,,,,,q,0.7241,0,182,182,182,1,182,images/pixabay_cat_001206.jpg,images/pixabay_cat_003121.jpg,Jesse,001,2021-07-19_15h56.53.813,Cat face experiment_fully sample_601-900,2021.1.4,Win32,59.72645285
,,,,,,p,0.8743,0,183,183,183,1,183,images/pixabay_cat_003186.jpg,images/pixabay_cat_001265.jpg,Jesse,001,2021-07-19_15h56.53.813,Cat face experiment_fully sample_601-900,2021.1.4,Win32,59.72645285
,,,,,,p,0.7579,0,184,184,184,1,184,images/flickr_cat_000206.jpg,images/pixabay_cat_001160.jpg,Jesse,001,2021-07-19_15h56.53.813,Cat face experiment_fully sample_601-900,2021.1.4,Win32,59.72645285
,,,,,,q,0.8111,0,185,185,185,1,185,images/pixabay_cat_003635.jpg,images/pixabay_cat_001160.jpg,Jesse,001,2021-07-19_15h56.53.813,Cat face experiment_fully sample_601-900,2021.1.4,Win32,59.72645285
,,,,,,p,0.7947,0,186,186,186,1,186,images/pixabay_cat_003635.jpg,images/flickr_cat_000206.jpg,Jesse,001,2021-07-19_15h56.53.813,Cat face experiment_fully sample_601-900,2021.1.4,Win32,59.72645285
,,,,,,q,0.9599,0,187,187,187,1,187,images/flickr_cat_000022.jpg,images/pixabay_cat_004148.jpg,Jesse,001,2021-07-19_15h56.53.813,Cat face experiment_fully sample_601-900,2021.1.4,Win32,59.72645285
,,,,,,p,0.8929,0,188,188,188,1,188,images/pixabay_cat_001597.jpg,images/pixabay_cat_000120.jpg,Jesse,001,2021-07-19_15h56.53.813,Cat face experiment_fully sample_601-900,2021.1.4,Win32,59.72645285
,,,,,,p,0.9254,0,189,189,189,1,189,images/pixabay_cat_004292.jpg,images/flickr_cat_000581.jpg,Jesse,001,2021-07-19_15h56.53.813,Cat face experiment_fully sample_601-900,2021.1.4,Win32,59.72645285
,,,,,,p,1.1379,0,190,190,190,1,190,images/pixabay_cat_001502.jpg,images/pixabay_cat_000120.jpg,Jesse,001,2021-07-19_15h56.53.813,Cat face experiment_fully sample_601-900,2021.1.4,Win32,59.72645285
,,,,,,p,0.854,0,191,191,191,1,191,images/pixabay_cat_003638.jpg,images/pixabay_cat_001862.jpg,Jesse,001,2021-07-19_15h56.53.813,Cat face experiment_fully sample_601-900,2021.1.4,Win32,59.72645285
,,,,,,p,0.9202,0,192,192,192,1,192,images/pixabay_cat_001102.jpg,images/pixabay_cat_001862.jpg,Jesse,001,2021-07-19_15h56.53.813,Cat face experiment_fully sample_601-900,2021.1.4,Win32,59.72645285
,,,,,,q,0.9198,0,193,193,193,1,193,images/pixabay_cat_003228.jpg,images/pixabay_cat_003121.jpg,Jesse,001,2021-07-19_15h56.53.813,Cat face experiment_fully sample_601-900,2021.1.4,Win32,59.72645285
,,,,,,p,0.9032,0,194,194,194,1,194,images/pixabay_cat_001502.jpg,images/pixabay_cat_001805.jpg,Jesse,001,2021-07-19_15h56.53.813,Cat face experiment_fully sample_601-900,2021.1.4,Win32,59.72645285
,,,,,,p,0.8041,0,195,195,195,1,195,images/pixabay_cat_000260.jpg,images/flickr_cat_000240.jpg,Jesse,001,2021-07-19_15h56.53.813,Cat face experiment_fully sample_601-900,2021.1.4,Win32,59.72645285
,,,,,,p,0.7558,0,196,196,196,1,196,images/pixabay_cat_003186.jpg,images/flickr_cat_000083.jpg,Jesse,001,2021-07-19_15h56.53.813,Cat face experiment_fully sample_601-900,2021.1.4,Win32,59.72645285
,,,,,,p,0.956,0,197,197,197,1,197,images/pixabay_cat_001265.jpg,images/flickr_cat_000206.jpg,Jesse,001,2021-07-19_15h56.53.813,Cat face experiment_fully sample_601-900,2021.1.4,Win32,59.72645285
,,,,,,p,0.8559,0,198,198,198,1,198,images/pixabay_cat_002690.jpg,images/pixabay_cat_000120.jpg,Jesse,001,2021-07-19_15h56.53.813,Cat face experiment_fully sample_601-900,2021.1.4,Win32,59.72645285
,,,,,,p,0.8066,0,199,199,199,1,199,images/flickr_cat_000022.jpg,images/pixabay_cat_003312.jpg,Jesse,001,2021-07-19_15h56.53.813,Cat face experiment_fully sample_601-900,2021.1.4,Win32,59.72645285
,,,,,,p,1.1524,0,200,200,200,1,200,images/pixabay_cat_003121.jpg,images/flickr_cat_000200.jpg,Jesse,001,2021-07-19_15h56.53.813,Cat face experiment_fully sample_601-900,2021.1.4,Win32,59.72645285
,,,,,,p,0.7052,0,201,201,201,1,201,images/pixabay_cat_003425.jpg,images/pixabay_cat_001102.jpg,Jesse,001,2021-07-19_15h56.53.813,Cat face experiment_fully sample_601-900,2021.1.4,Win32,59.72645285
,,,,,,p,0.7253,0,202,202,202,1,202,images/pixabay_cat_002614.jpg,images/pixabay_cat_002930.jpg,Jesse,001,2021-07-19_15h56.53.813,Cat face experiment_fully sample_601-900,2021.1.4,Win32,59.72645285
,,,,,,p,0.8593,0,203,203,203,1,203,images/pixabay_cat_000411.jpg,images/pixabay_cat_001206.jpg,Jesse,001,2021-07-19_15h56.53.813,Cat face experiment_fully sample_601-900,2021.1.4,Win32,59.72645285
,,,,,,q,0.9096,0,204,204,204,1,204,images/pixabay_cat_001597.jpg,images/pixabay_cat_001160.jpg,Jesse,001,2021-07-19_15h56.53.813,Cat face experiment_fully sample_601-900,2021.1.4,Win32,59.72645285
,,,,,,p,0.7782,0,205,205,205,1,205,images/pixabay_cat_003638.jpg,images/pixabay_cat_001304.jpg,Jesse,001,2021-07-19_15h56.53.813,Cat face experiment_fully sample_601-900,2021.1.4,Win32,59.72645285
,,,,,,q,0.7968,0,206,206,206,1,206,images/pixabay_cat_001502.jpg,images/pixabay_cat_003635.jpg,Jesse,001,2021-07-19_15h56.53.813,Cat face experiment_fully sample_601-900,2021.1.4,Win32,59.72645285
,,,,,,q,0.8973,0,207,207,207,1,207,images/pixabay_cat_000260.jpg,images/pixabay_cat_004049.jpg,Jesse,001,2021-07-19_15h56.53.813,Cat face experiment_fully sample_601-900,2021.1.4,Win32,59.72645285
,,,,,,p,0.7334,0,208,208,208,1,208,images/flickr_cat_000581.jpg,images/pixabay_cat_003638.jpg,Jesse,001,2021-07-19_15h56.53.813,Cat face experiment_fully sample_601-900,2021.1.4,Win32,59.72645285
,,,,,,q,0.8845,0,209,209,209,1,209,images/pixabay_cat_003228.jpg,images/pixabay_cat_002614.jpg,Jesse,001,2021-07-19_15h56.53.813,Cat face experiment_fully sample_601-900,2021.1.4,Win32,59.72645285
,,,,,,p,0.6233,0,210,210,210,1,210,images/pixabay_cat_003077.jpg,images/pixabay_cat_004148.jpg,Jesse,001,2021-07-19_15h56.53.813,Cat face experiment_fully sample_601-900,2021.1.4,Win32,59.72645285
,,,,,,q,0.7264,0,211,211,211,1,211,images/flickr_cat_000266.jpg,images/pixabay_cat_003186.jpg,Jesse,001,2021-07-19_15h56.53.813,Cat face experiment_fully sample_601-900,2021.1.4,Win32,59.72645285
,,,,,,p,0.5976,0,212,212,212,1,212,images/pixabay_cat_003186.jpg,images/pixabay_cat_000883.jpg,Jesse,001,2021-07-19_15h56.53.813,Cat face experiment_fully sample_601-900,2021.1.4,Win32,59.72645285
,,,,,,q,0.7508,0,213,213,213,1,213,images/flickr_cat_000581.jpg,images/pixabay_cat_004641.jpg,Jesse,001,2021-07-19_15h56.53.813,Cat face experiment_fully sample_601-900,2021.1.4,Win32,59.72645285
,,,,,,q,0.7534,0,214,214,214,1,214,images/pixabay_cat_003228.jpg,images/pixabay_cat_001178.jpg,Jesse,001,2021-07-19_15h56.53.813,Cat face experiment_fully sample_601-900,2021.1.4,Win32,59.72645285
,,,,,,p,0.8204,0,215,215,215,1,215,images/flickr_cat_000206.jpg,images/pixabay_cat_003638.jpg,Jesse,001,2021-07-19_15h56.53.813,Cat face experiment_fully sample_601-900,2021.1.4,Win32,59.72645285
,,,,,,q,0.8055,0,216,216,216,1,216,images/pixabay_cat_003927.jpg,images/pixabay_cat_002300.jpg,Jesse,001,2021-07-19_15h56.53.813,Cat face experiment_fully sample_601-900,2021.1.4,Win32,59.72645285
,,,,,,p,1.0525,0,217,217,217,1,217,images/pixabay_cat_001502.jpg,images/pixabay_cat_002690.jpg,Jesse,001,2021-07-19_15h56.53.813,Cat face experiment_fully sample_601-900,2021.1.4,Win32,59.72645285
,,,,,,p,0.9514,0,218,218,218,1,218,images/pixabay_cat_004489.jpg,images/flickr_cat_000240.jpg,Jesse,001,2021-07-19_15h56.53.813,Cat face experiment_fully sample_601-900,2021.1.4,Win32,59.72645285
,,,,,,p,0.8192,0,219,219,219,1,219,images/pixabay_cat_001502.jpg,images/flickr_cat_000200.jpg,Jesse,001,2021-07-19_15h56.53.813,Cat face experiment_fully sample_601-900,2021.1.4,Win32,59.72645285
,,,,,,q,0.7374,0,220,220,220,1,220,images/pixabay_cat_004182.jpg,images/pixabay_cat_001862.jpg,Jesse,001,2021-07-19_15h56.53.813,Cat face experiment_fully sample_601-900,2021.1.4,Win32,59.72645285
,,,,,,p,0.7892,0,221,221,221,1,221,images/pixabay_cat_001862.jpg,images/pixabay_cat_000286.jpg,Jesse,001,2021-07-19_15h56.53.813,Cat face experiment_fully sample_601-900,2021.1.4,Win32,59.72645285
,,,,,,p,1.1031,0,222,222,222,1,222,images/pixabay_cat_003566.jpg,images/pixabay_cat_000286.jpg,Jesse,001,2021-07-19_15h56.53.813,Cat face experiment_fully sample_601-900,2021.1.4,Win32,59.72645285
,,,,,,q,0.7715,0,223,223,223,1,223,images/flickr_cat_000083.jpg,images/pixabay_cat_002300.jpg,Jesse,001,2021-07-19_15h56.53.813,Cat face experiment_fully sample_601-900,2021.1.4,Win32,59.72645285
,,,,,,q,0.8056,0,224,224,224,1,224,images/flickr_cat_000240.jpg,images/pixabay_cat_004148.jpg,Jesse,001,2021-07-19_15h56.53.813,Cat face experiment_fully sample_601-900,2021.1.4,Win32,59.72645285
,,,,,,q,0.8079,0,225,225,225,1,225,images/pixabay_cat_004489.jpg,images/pixabay_cat_004182.jpg,Jesse,001,2021-07-19_15h56.53.813,Cat face experiment_fully sample_601-900,2021.1.4,Win32,59.72645285
,,,,,,p,0.6951,0,226,226,226,1,226,images/flickr_cat_000285.jpg,images/pixabay_cat_004182.jpg,Jesse,001,2021-07-19_15h56.53.813,Cat face experiment_fully sample_601-900,2021.1.4,Win32,59.72645285
,,,,,,q,0.8292,0,227,227,227,1,227,images/pixabay_cat_003566.jpg,images/pixabay_cat_003312.jpg,Jesse,001,2021-07-19_15h56.53.813,Cat face experiment_fully sample_601-900,2021.1.4,Win32,59.72645285
,,,,,,p,0.8165,0,228,228,228,1,228,images/pixabay_cat_002045.jpg,images/pixabay_cat_001206.jpg,Jesse,001,2021-07-19_15h56.53.813,Cat face experiment_fully sample_601-900,2021.1.4,Win32,59.72645285
,,,,,,q,0.8165,0,229,229,229,1,229,images/pixabay_cat_001502.jpg,images/pixabay_cat_003186.jpg,Jesse,001,2021-07-19_15h56.53.813,Cat face experiment_fully sample_601-900,2021.1.4,Win32,59.72645285
,,,,,,q,0.8999,0,230,230,230,1,230,images/flickr_cat_000285.jpg,images/pixabay_cat_003312.jpg,Jesse,001,2021-07-19_15h56.53.813,Cat face experiment_fully sample_601-900,2021.1.4,Win32,59.72645285
,,,,,,q,0.8836,0,231,231,231,1,231,images/pixabay_cat_003566.jpg,images/pixabay_cat_001206.jpg,Jesse,001,2021-07-19_15h56.53.813,Cat face experiment_fully sample_601-900,2021.1.4,Win32,59.72645285
,,,,,,q,0.8339,0,232,232,232,1,232,images/pixabay_cat_002601.jpg,images/flickr_cat_000266.jpg,Jesse,001,2021-07-19_15h56.53.813,Cat face experiment_fully sample_601-900,2021.1.4,Win32,59.72645285
,,,,,,p,0.7514,0,233,233,233,1,233,images/pixabay_cat_003121.jpg,images/pixabay_cat_001178.jpg,Jesse,001,2021-07-19_15h56.53.813,Cat face experiment_fully sample_601-900,2021.1.4,Win32,59.72645285
,,,,,,p,0.8366,0,234,234,234,1,234,images/pixabay_cat_001265.jpg,images/pixabay_cat_002614.jpg,Jesse,001,2021-07-19_15h56.53.813,Cat face experiment_fully sample_601-900,2021.1.4,Win32,59.72645285
,,,,,,p,0.9354,0,235,235,235,1,235,images/pixabay_cat_003228.jpg,images/flickr_cat_000240.jpg,Jesse,001,2021-07-19_15h56.53.813,Cat face experiment_fully sample_601-900,2021.1.4,Win32,59.72645285
,,,,,,q,0.8688,0,236,236,236,1,236,images/flickr_cat_000206.jpg,images/pixabay_cat_001178.jpg,Jesse,001,2021-07-19_15h56.53.813,Cat face experiment_fully sample_601-900,2021.1.4,Win32,59.72645285
,,,,,,q,0.738,0,237,237,237,1,237,images/pixabay_cat_004641.jpg,images/pixabay_cat_004148.jpg,Jesse,001,2021-07-19_15h56.53.813,Cat face experiment_fully sample_601-900,2021.1.4,Win32,59.72645285
,,,,,,p,0.7406,0,238,238,238,1,238,images/pixabay_cat_000411.jpg,images/flickr_cat_000285.jpg,Jesse,001,2021-07-19_15h56.53.813,Cat face experiment_fully sample_601-900,2021.1.4,Win32,59.72645285
,,,,,,p,0.7436,0,239,239,239,1,239,images/flickr_cat_000271.jpg,images/pixabay_cat_003312.jpg,Jesse,001,2021-07-19_15h56.53.813,Cat face experiment_fully sample_601-900,2021.1.4,Win32,59.72645285
,,,,,,p,0.7629,0,240,240,240,1,240,images/pixabay_cat_002300.jpg,images/pixabay_cat_001805.jpg,Jesse,001,2021-07-19_15h56.53.813,Cat face experiment_fully sample_601-900,2021.1.4,Win32,59.72645285
,,,,,,q,0.6503,0,241,241,241,1,241,images/pixabay_cat_001206.jpg,images/pixabay_cat_001805.jpg,Jesse,001,2021-07-19_15h56.53.813,Cat face experiment_fully sample_601-900,2021.1.4,Win32,59.72645285
,,,,,,p,0.736,0,242,242,242,1,242,images/pixabay_cat_003312.jpg,images/pixabay_cat_001862.jpg,Jesse,001,2021-07-19_15h56.53.813,Cat face experiment_fully sample_601-900,2021.1.4,Win32,59.72645285
,,,,,,p,0.7392,0,243,243,243,1,243,images/pixabay_cat_003635.jpg,images/pixabay_cat_004182.jpg,Jesse,001,2021-07-19_15h56.53.813,Cat face experiment_fully sample_601-900,2021.1.4,Win32,59.72645285
,,,,,,q,0.7744,0,244,244,244,1,244,images/pixabay_cat_002614.jpg,images/flickr_cat_000271.jpg,Jesse,001,2021-07-19_15h56.53.813,Cat face experiment_fully sample_601-900,2021.1.4,Win32,59.72645285
,,,,,,p,0.7439,0,245,245,245,1,245,images/pixabay_cat_002979.jpg,images/pixabay_cat_001284.jpg,Jesse,001,2021-07-19_15h56.53.813,Cat face experiment_fully sample_601-900,2021.1.4,Win32,59.72645285
,,,,,,p,0.8114,0,246,246,246,1,246,images/pixabay_cat_003635.jpg,images/pixabay_cat_004489.jpg,Jesse,001,2021-07-19_15h56.53.813,Cat face experiment_fully sample_601-900,2021.1.4,Win32,59.72645285
,,,,,,p,0.7669,0,247,247,247,1,247,images/flickr_cat_000200.jpg,images/pixabay_cat_000286.jpg,Jesse,001,2021-07-19_15h56.53.813,Cat face experiment_fully sample_601-900,2021.1.4,Win32,59.72645285
,,,,,,p,0.7999,0,248,248,248,1,248,images/pixabay_cat_000411.jpg,images/pixabay_cat_000120.jpg,Jesse,001,2021-07-19_15h56.53.813,Cat face experiment_fully sample_601-900,2021.1.4,Win32,59.72645285
,,,,,,p,0.8832,0,249,249,249,1,249,images/pixabay_cat_000260.jpg,images/pixabay_cat_001178.jpg,Jesse,001,2021-07-19_15h56.53.813,Cat face experiment_fully sample_601-900,2021.1.4,Win32,59.72645285
,,,,,,p,0.8832,0,250,250,250,1,250,images/pixabay_cat_003635.jpg,images/pixabay_cat_000120.jpg,Jesse,001,2021-07-19_15h56.53.813,Cat face experiment_fully sample_601-900,2021.1.4,Win32,59.72645285
,,,,,,p,0.8333,0,251,251,251,1,251,images/pixabay_cat_004292.jpg,images/pixabay_cat_000883.jpg,Jesse,001,2021-07-19_15h56.53.813,Cat face experiment_fully sample_601-900,2021.1.4,Win32,59.72645285
,,,,,,p,0.9001,0,252,252,252,1,252,images/flickr_cat_000206.jpg,images/pixabay_cat_004148.jpg,Jesse,001,2021-07-19_15h56.53.813,Cat face experiment_fully sample_601-900,2021.1.4,Win32,59.72645285
,,,,,,q,0.8177,0,253,253,253,1,253,images/pixabay_cat_000120.jpg,images/pixabay_cat_001160.jpg,Jesse,001,2021-07-19_15h56.53.813,Cat face experiment_fully sample_601-900,2021.1.4,Win32,59.72645285
,,,,,,p,0.8353,0,254,254,254,1,254,images/pixabay_cat_001160.jpg,images/pixabay_cat_003638.jpg,Jesse,001,2021-07-19_15h56.53.813,Cat face experiment_fully sample_601-900,2021.1.4,Win32,59.72645285
,,,,,,p,0.8696,0,255,255,255,1,255,images/pixabay_cat_003077.jpg,images/pixabay_cat_000100.jpg,Jesse,001,2021-07-19_15h56.53.813,Cat face experiment_fully sample_601-900,2021.1.4,Win32,59.72645285
,,,,,,p,0.9834,0,256,256,256,1,256,images/flickr_cat_000266.jpg,images/pixabay_cat_001862.jpg,Jesse,001,2021-07-19_15h56.53.813,Cat face experiment_fully sample_601-900,2021.1.4,Win32,59.72645285
,,,,,,q,0.8671,0,257,257,257,1,257,images/flickr_cat_000581.jpg,images/pixabay_cat_001102.jpg,Jesse,001,2021-07-19_15h56.53.813,Cat face experiment_fully sample_601-900,2021.1.4,Win32,59.72645285
,,,,,,p,0.8672,0,258,258,258,1,258,images/pixabay_cat_003638.jpg,images/pixabay_cat_001805.jpg,Jesse,001,2021-07-19_15h56.53.813,Cat face experiment_fully sample_601-900,2021.1.4,Win32,59.72645285
,,,,,,p,0.8834,0,259,259,259,1,259,images/pixabay_cat_003635.jpg,images/pixabay_cat_002045.jpg,Jesse,001,2021-07-19_15h56.53.813,Cat face experiment_fully sample_601-900,2021.1.4,Win32,59.72645285
,,,,,,p,0.8182,0,260,260,260,1,260,images/pixabay_cat_003228.jpg,images/pixabay_cat_002300.jpg,Jesse,001,2021-07-19_15h56.53.813,Cat face experiment_fully sample_601-900,2021.1.4,Win32,59.72645285
,,,,,,p,0.9339,0,261,261,261,1,261,images/pixabay_cat_002690.jpg,images/pixabay_cat_000883.jpg,Jesse,001,2021-07-19_15h56.53.813,Cat face experiment_fully sample_601-900,2021.1.4,Win32,59.72645285
,,,,,,q,0.7499,0,262,262,262,1,262,images/pixabay_cat_004489.jpg,images/pixabay_cat_001805.jpg,Jesse,001,2021-07-19_15h56.53.813,Cat face experiment_fully sample_601-900,2021.1.4,Win32,59.72645285
,,,,,,p,0.6737,0,263,263,263,1,263,images/flickr_cat_000206.jpg,images/pixabay_cat_002614.jpg,Jesse,001,2021-07-19_15h56.53.813,Cat face experiment_fully sample_601-900,2021.1.4,Win32,59.72645285
,,,,,,q,0.7589,0,264,264,264,1,264,images/pixabay_cat_000260.jpg,images/pixabay_cat_003228.jpg,Jesse,001,2021-07-19_15h56.53.813,Cat face experiment_fully sample_601-900,2021.1.4,Win32,59.72645285
,,,,,,p,0.7937,0,265,265,265,1,265,images/pixabay_cat_001805.jpg,images/pixabay_cat_004182.jpg,Jesse,001,2021-07-19_15h56.53.813,Cat face experiment_fully sample_601-900,2021.1.4,Win32,59.72645285
,,,,,,q,0.8284,0,266,266,266,1,266,images/pixabay_cat_001304.jpg,images/flickr_cat_000200.jpg,Jesse,001,2021-07-19_15h56.53.813,Cat face experiment_fully sample_601-900,2021.1.4,Win32,59.72645285
,,,,,,q,0.748,0,267,267,267,1,267,images/pixabay_cat_001206.jpg,images/pixabay_cat_001862.jpg,Jesse,001,2021-07-19_15h56.53.813,Cat face experiment_fully sample_601-900,2021.1.4,Win32,59.72645285
,,,,,,p,0.8644,0,268,268,268,1,268,images/pixabay_cat_002601.jpg,images/pixabay_cat_002930.jpg,Jesse,001,2021-07-19_15h56.53.813,Cat face experiment_fully sample_601-900,2021.1.4,Win32,59.72645285
,,,,,,p,0.7505,0,269,269,269,1,269,images/pixabay_cat_000260.jpg,images/pixabay_cat_000883.jpg,Jesse,001,2021-07-19_15h56.53.813,Cat face experiment_fully sample_601-900,2021.1.4,Win32,59.72645285
,,,,,,p,0.8503,0,270,270,270,1,270,images/pixabay_cat_001160.jpg,images/pixabay_cat_001805.jpg,Jesse,001,2021-07-19_15h56.53.813,Cat face experiment_fully sample_601-900,2021.1.4,Win32,59.72645285
,,,,,,p,0.8505,0,271,271,271,1,271,images/pixabay_cat_004641.jpg,images/pixabay_cat_002930.jpg,Jesse,001,2021-07-19_15h56.53.813,Cat face experiment_fully sample_601-900,2021.1.4,Win32,59.72645285
,,,,,,q,0.8008,0,272,272,272,1,272,images/pixabay_cat_002690.jpg,images/flickr_cat_000200.jpg,Jesse,001,2021-07-19_15h56.53.813,Cat face experiment_fully sample_601-900,2021.1.4,Win32,59.72645285
,,,,,,p,0.7688,0,273,273,273,1,273,images/flickr_cat_000206.jpg,images/pixabay_cat_002930.jpg,Jesse,001,2021-07-19_15h56.53.813,Cat face experiment_fully sample_601-900,2021.1.4,Win32,59.72645285
,,,,,,q,0.7056,0,274,274,274,1,274,images/pixabay_cat_004292.jpg,images/pixabay_cat_004182.jpg,Jesse,001,2021-07-19_15h56.53.813,Cat face experiment_fully sample_601-900,2021.1.4,Win32,59.72645285
,,,,,,p,0.7574,0,275,275,275,1,275,images/pixabay_cat_000043.jpg,images/flickr_cat_000206.jpg,Jesse,001,2021-07-19_15h56.53.813,Cat face experiment_fully sample_601-900,2021.1.4,Win32,59.72645285
,,,,,,q,0.8582,0,276,276,276,1,276,images/pixabay_cat_001265.jpg,images/flickr_cat_000271.jpg,Jesse,001,2021-07-19_15h56.53.813,Cat face experiment_fully sample_601-900,2021.1.4,Win32,59.72645285
,,,,,,p,0.8426,0,277,277,277,1,277,images/pixabay_cat_004292.jpg,images/pixabay_cat_002930.jpg,Jesse,001,2021-07-19_15h56.53.813,Cat face experiment_fully sample_601-900,2021.1.4,Win32,59.72645285
,,,,,,q,0.7449,0,278,278,278,1,278,images/pixabay_cat_003228.jpg,images/pixabay_cat_004641.jpg,Jesse,001,2021-07-19_15h56.53.813,Cat face experiment_fully sample_601-900,2021.1.4,Win32,59.72645285
,,,,,,p,0.8286,0,279,279,279,1,279,images/pixabay_cat_000120.jpg,images/pixabay_cat_001805.jpg,Jesse,001,2021-07-19_15h56.53.813,Cat face experiment_fully sample_601-900,2021.1.4,Win32,59.72645285
,,,,,,p,0.7966,0,280,280,280,1,280,images/flickr_cat_000271.jpg,images/pixabay_cat_001206.jpg,Jesse,001,2021-07-19_15h56.53.813,Cat face experiment_fully sample_601-900,2021.1.4,Win32,59.72645285
,,,,,,q,0.8143,0,281,281,281,1,281,images/pixabay_cat_002601.jpg,images/pixabay_cat_003077.jpg,Jesse,001,2021-07-19_15h56.53.813,Cat face experiment_fully sample_601-900,2021.1.4,Win32,59.72645285
,,,,,,q,0.8166,0,282,282,282,1,282,images/pixabay_cat_003635.jpg,images/flickr_cat_000285.jpg,Jesse,001,2021-07-19_15h56.53.813,Cat face experiment_fully sample_601-900,2021.1.4,Win32,59.72645285
,,,,,,p,0.8173,0,283,283,283,1,283,images/pixabay_cat_000260.jpg,images/pixabay_cat_001597.jpg,Jesse,001,2021-07-19_15h56.53.813,Cat face experiment_fully sample_601-900,2021.1.4,Win32,59.72645285
,,,,,,q,0.7848,0,284,284,284,1,284,images/pixabay_cat_003228.jpg,images/pixabay_cat_001805.jpg,Jesse,001,2021-07-19_15h56.53.813,Cat face experiment_fully sample_601-900,2021.1.4,Win32,59.72645285
,,,,,,p,0.6557,0,285,285,285,1,285,images/flickr_cat_000206.jpg,images/pixabay_cat_004182.jpg,Jesse,001,2021-07-19_15h56.53.813,Cat face experiment_fully sample_601-900,2021.1.4,Win32,59.72645285
,,,,,,q,0.7247,0,286,286,286,1,286,images/flickr_cat_000266.jpg,images/pixabay_cat_004182.jpg,Jesse,001,2021-07-19_15h56.53.813,Cat face experiment_fully sample_601-900,2021.1.4,Win32,59.72645285
,,,,,,q,0.8588,0,287,287,287,1,287,images/pixabay_cat_004148.jpg,images/pixabay_cat_000100.jpg,Jesse,001,2021-07-19_15h56.53.813,Cat face experiment_fully sample_601-900,2021.1.4,Win32,59.72645285
,,,,,,p,0.7122,0,288,288,288,1,288,images/pixabay_cat_003635.jpg,images/pixabay_cat_004148.jpg,Jesse,001,2021-07-19_15h56.53.813,Cat face experiment_fully sample_601-900,2021.1.4,Win32,59.72645285
,,,,,,q,0.7635,0,289,289,289,1,289,images/pixabay_cat_002601.jpg,images/pixabay_cat_001102.jpg,Jesse,001,2021-07-19_15h56.53.813,Cat face experiment_fully sample_601-900,2021.1.4,Win32,59.72645285
,,,,,,p,0.7664,0,290,290,290,1,290,images/flickr_cat_000022.jpg,images/pixabay_cat_002979.jpg,Jesse,001,2021-07-19_15h56.53.813,Cat face experiment_fully sample_601-900,2021.1.4,Win32,59.72645285
,,,,,,p,0.7353,0,291,291,291,1,291,images/pixabay_cat_002979.jpg,images/pixabay_cat_000883.jpg,Jesse,001,2021-07-19_15h56.53.813,Cat face experiment_fully sample_601-900,2021.1.4,Win32,59.72645285
,,,,,,q,0.7219,0,292,292,292,1,292,images/pixabay_cat_004182.jpg,images/pixabay_cat_000100.jpg,Jesse,001,2021-07-19_15h56.53.813,Cat face experiment_fully sample_601-900,2021.1.4,Win32,59.72645285
,,,,,,p,0.7239,0,293,293,293,1,293,images/pixabay_cat_002614.jpg,images/pixabay_cat_000883.jpg,Jesse,001,2021-07-19_15h56.53.813,Cat face experiment_fully sample_601-900,2021.1.4,Win32,59.72645285
,,,,,,q,0.7433,0,294,294,294,1,294,images/flickr_cat_000240.jpg,images/pixabay_cat_002979.jpg,Jesse,001,2021-07-19_15h56.53.813,Cat face experiment_fully sample_601-900,2021.1.4,Win32,59.72645285
,,,,,,p,0.7791,0,295,295,295,1,295,images/pixabay_cat_004489.jpg,images/flickr_cat_000083.jpg,Jesse,001,2021-07-19_15h56.53.813,Cat face experiment_fully sample_601-900,2021.1.4,Win32,59.72645285
,,,,,,q,0.7497,0,296,296,296,1,296,images/pixabay_cat_004641.jpg,images/pixabay_cat_001597.jpg,Jesse,001,2021-07-19_15h56.53.813,Cat face experiment_fully sample_601-900,2021.1.4,Win32,59.72645285
,,,,,,q,0.8974,0,297,297,297,1,297,images/pixabay_cat_004489.jpg,images/pixabay_cat_003121.jpg,Jesse,001,2021-07-19_15h56.53.813,Cat face experiment_fully sample_601-900,2021.1.4,Win32,59.72645285
,,,,,,q,0.7998,0,298,298,298,1,298,images/pixabay_cat_000260.jpg,images/pixabay_cat_003638.jpg,Jesse,001,2021-07-19_15h56.53.813,Cat face experiment_fully sample_601-900,2021.1.4,Win32,59.72645285
,,,,,,p,1.0951,0,299,299,299,1,299,images/pixabay_cat_003635.jpg,images/flickr_cat_000083.jpg,Jesse,001,2021-07-19_15h56.53.813,Cat face experiment_fully sample_601-900,2021.1.4,Win32,59.72645285
