key_resp.keys,key_resp.rt,key_resp_2.keys,key_resp_2.rt,key_resp_3.keys,key_resp_3.rt,key_resp_4.keys,key_resp_4.rt,trials.thisRepN,trials.thisTrialN,trials.thisN,trials.thisIndex,trials.ran,trail_nums,img1,img2,participant,session,date,expName,psychopyVersion,OS,frameRate
space,663.38703,space,1.491515,space,0.66275,p,3.16867,0,0,0,0,1,0,images/pixabay_cat_002300.jpg,images/pixabay_cat_002930.jpg,Whitney,001,2021-06-22_09h47.07.365,Cat face experiment_fully sample_901-1225,2021.1.4,Win32,59.95203837
,,,,,,q,0.86943,0,1,1,1,1,1,images/pixabay_cat_000043.jpg,images/pixabay_cat_003927.jpg,Whitney,001,2021-06-22_09h47.07.365,Cat face experiment_fully sample_901-1225,2021.1.4,Win32,59.95203837
,,,,,,q,1.225185,0,2,2,2,1,2,images/pixabay_cat_003077.jpg,images/pixabay_cat_003638.jpg,Whitney,001,2021-06-22_09h47.07.365,Cat face experiment_fully sample_901-1225,2021.1.4,Win32,59.95203837
,,,,,,p,1.711495,0,3,3,3,1,3,images/pixabay_cat_003927.jpg,images/pixabay_cat_003121.jpg,Whitney,001,2021-06-22_09h47.07.365,Cat face experiment_fully sample_901-1225,2021.1.4,Win32,59.95203837
,,,,,,p,0.956375,0,4,4,4,1,4,images/pixabay_cat_004292.jpg,images/pixabay_cat_001597.jpg,Whitney,001,2021-06-22_09h47.07.365,Cat face experiment_fully sample_901-1225,2021.1.4,Win32,59.95203837
,,,,,,q,1.393865,0,5,5,5,1,5,images/pixabay_cat_004292.jpg,images/pixabay_cat_003186.jpg,Whitney,001,2021-06-22_09h47.07.365,Cat face experiment_fully sample_901-1225,2021.1.4,Win32,59.95203837
,,,,,,p,0.987575,0,6,6,6,1,6,images/pixabay_cat_001178.jpg,images/pixabay_cat_002930.jpg,Whitney,001,2021-06-22_09h47.07.365,Cat face experiment_fully sample_901-1225,2021.1.4,Win32,59.95203837
,,,,,,p,1.61015,0,7,7,7,1,7,images/pixabay_cat_003228.jpg,images/pixabay_cat_001862.jpg,Whitney,001,2021-06-22_09h47.07.365,Cat face experiment_fully sample_901-1225,2021.1.4,Win32,59.95203837
,,,,,,p,0.93175,0,8,8,8,1,8,images/pixabay_cat_002601.jpg,images/pixabay_cat_004182.jpg,Whitney,001,2021-06-22_09h47.07.365,Cat face experiment_fully sample_901-1225,2021.1.4,Win32,59.95203837
,,,,,,q,0.833515,0,9,9,9,1,9,images/pixabay_cat_000043.jpg,images/pixabay_cat_004049.jpg,Whitney,001,2021-06-22_09h47.07.365,Cat face experiment_fully sample_901-1225,2021.1.4,Win32,59.95203837
,,,,,,p,1.617455,0,10,10,10,1,10,images/pixabay_cat_003425.jpg,images/pixabay_cat_002690.jpg,Whitney,001,2021-06-22_09h47.07.365,Cat face experiment_fully sample_901-1225,2021.1.4,Win32,59.95203837
,,,,,,p,1.186455,0,11,11,11,1,11,images/pixabay_cat_003927.jpg,images/pixabay_cat_003638.jpg,Whitney,001,2021-06-22_09h47.07.365,Cat face experiment_fully sample_901-1225,2021.1.4,Win32,59.95203837
,,,,,,q,1.4857,0,12,12,12,1,12,images/pixabay_cat_001597.jpg,images/pixabay_cat_001206.jpg,Whitney,001,2021-06-22_09h47.07.365,Cat face experiment_fully sample_901-1225,2021.1.4,Win32,59.95203837
,,,,,,q,1.15806,0,13,13,13,1,13,images/pixabay_cat_004049.jpg,images/pixabay_cat_002300.jpg,Whitney,001,2021-06-22_09h47.07.365,Cat face experiment_fully sample_901-1225,2021.1.4,Win32,59.95203837
,,,,,,p,2.14314,0,14,14,14,1,14,images/pixabay_cat_004049.jpg,images/pixabay_cat_003312.jpg,Whitney,001,2021-06-22_09h47.07.365,Cat face experiment_fully sample_901-1225,2021.1.4,Win32,59.95203837
,,,,,,q,1.916885,0,15,15,15,1,15,images/pixabay_cat_000411.jpg,images/pixabay_cat_003566.jpg,Whitney,001,2021-06-22_09h47.07.365,Cat face experiment_fully sample_901-1225,2021.1.4,Win32,59.95203837
,,,,,,q,1.16999,0,16,16,16,1,16,images/pixabay_cat_000411.jpg,images/pixabay_cat_002614.jpg,Whitney,001,2021-06-22_09h47.07.365,Cat face experiment_fully sample_901-1225,2021.1.4,Win32,59.95203837
,,,,,,q,1.372195,0,17,17,17,1,17,images/pixabay_cat_004049.jpg,images/flickr_cat_000083.jpg,Whitney,001,2021-06-22_09h47.07.365,Cat face experiment_fully sample_901-1225,2021.1.4,Win32,59.95203837
,,,,,,p,1.194995,0,18,18,18,1,18,images/pixabay_cat_003425.jpg,images/pixabay_cat_003566.jpg,Whitney,001,2021-06-22_09h47.07.365,Cat face experiment_fully sample_901-1225,2021.1.4,Win32,59.95203837
,,,,,,q,2.268595,0,19,19,19,1,19,images/flickr_cat_000022.jpg,images/pixabay_cat_004489.jpg,Whitney,001,2021-06-22_09h47.07.365,Cat face experiment_fully sample_901-1225,2021.1.4,Win32,59.95203837
,,,,,,q,2.64371,0,20,20,20,1,20,images/pixabay_cat_000260.jpg,images/flickr_cat_000083.jpg,Whitney,001,2021-06-22_09h47.07.365,Cat face experiment_fully sample_901-1225,2021.1.4,Win32,59.95203837
,,,,,,q,1.14233,0,21,21,21,1,21,images/flickr_cat_000581.jpg,images/pixabay_cat_002601.jpg,Whitney,001,2021-06-22_09h47.07.365,Cat face experiment_fully sample_901-1225,2021.1.4,Win32,59.95203837
,,,,,,q,1.606665,0,22,22,22,1,22,images/pixabay_cat_003425.jpg,images/pixabay_cat_002601.jpg,Whitney,001,2021-06-22_09h47.07.365,Cat face experiment_fully sample_901-1225,2021.1.4,Win32,59.95203837
,,,,,,p,4.638555,0,23,23,23,1,23,images/pixabay_cat_003566.jpg,images/flickr_cat_000022.jpg,Whitney,001,2021-06-22_09h47.07.365,Cat face experiment_fully sample_901-1225,2021.1.4,Win32,59.95203837
,,,,,,p,1.666715,0,24,24,24,1,24,images/pixabay_cat_003186.jpg,images/pixabay_cat_000286.jpg,Whitney,001,2021-06-22_09h47.07.365,Cat face experiment_fully sample_901-1225,2021.1.4,Win32,59.95203837
,,,,,,p,1.168085,0,25,25,25,1,25,images/pixabay_cat_003635.jpg,images/pixabay_cat_002979.jpg,Whitney,001,2021-06-22_09h47.07.365,Cat face experiment_fully sample_901-1225,2021.1.4,Win32,59.95203837
,,,,,,p,1.2333,0,26,26,26,1,26,images/flickr_cat_000083.jpg,images/pixabay_cat_004148.jpg,Whitney,001,2021-06-22_09h47.07.365,Cat face experiment_fully sample_901-1225,2021.1.4,Win32,59.95203837
,,,,,,q,0.99287,0,27,27,27,1,27,images/pixabay_cat_003228.jpg,images/pixabay_cat_001160.jpg,Whitney,001,2021-06-22_09h47.07.365,Cat face experiment_fully sample_901-1225,2021.1.4,Win32,59.95203837
,,,,,,q,1.145825,0,28,28,28,1,28,images/pixabay_cat_000120.jpg,images/pixabay_cat_001178.jpg,Whitney,001,2021-06-22_09h47.07.365,Cat face experiment_fully sample_901-1225,2021.1.4,Win32,59.95203837
,,,,,,q,1.24633,0,29,29,29,1,29,images/flickr_cat_000266.jpg,images/pixabay_cat_000100.jpg,Whitney,001,2021-06-22_09h47.07.365,Cat face experiment_fully sample_901-1225,2021.1.4,Win32,59.95203837
,,,,,,q,0.855415,0,30,30,30,1,30,images/pixabay_cat_000120.jpg,images/pixabay_cat_002614.jpg,Whitney,001,2021-06-22_09h47.07.365,Cat face experiment_fully sample_901-1225,2021.1.4,Win32,59.95203837
,,,,,,q,0.99126,0,31,31,31,1,31,images/pixabay_cat_002930.jpg,images/pixabay_cat_000100.jpg,Whitney,001,2021-06-22_09h47.07.365,Cat face experiment_fully sample_901-1225,2021.1.4,Win32,59.95203837
,,,,,,q,1.15169,0,32,32,32,1,32,images/flickr_cat_000240.jpg,images/pixabay_cat_001206.jpg,Whitney,001,2021-06-22_09h47.07.365,Cat face experiment_fully sample_901-1225,2021.1.4,Win32,59.95203837
,,,,,,p,1.46808,0,33,33,33,1,33,images/flickr_cat_000271.jpg,images/pixabay_cat_004182.jpg,Whitney,001,2021-06-22_09h47.07.365,Cat face experiment_fully sample_901-1225,2021.1.4,Win32,59.95203837
,,,,,,q,0.817875,0,34,34,34,1,34,images/flickr_cat_000581.jpg,images/pixabay_cat_003566.jpg,Whitney,001,2021-06-22_09h47.07.365,Cat face experiment_fully sample_901-1225,2021.1.4,Win32,59.95203837
,,,,,,q,0.772185,0,35,35,35,1,35,images/pixabay_cat_002045.jpg,images/pixabay_cat_003312.jpg,Whitney,001,2021-06-22_09h47.07.365,Cat face experiment_fully sample_901-1225,2021.1.4,Win32,59.95203837
,,,,,,p,1.251415,0,36,36,36,1,36,images/pixabay_cat_001265.jpg,images/pixabay_cat_000120.jpg,Whitney,001,2021-06-22_09h47.07.365,Cat face experiment_fully sample_901-1225,2021.1.4,Win32,59.95203837
,,,,,,q,1.367765,0,37,37,37,1,37,images/pixabay_cat_001502.jpg,images/pixabay_cat_002045.jpg,Whitney,001,2021-06-22_09h47.07.365,Cat face experiment_fully sample_901-1225,2021.1.4,Win32,59.95203837
,,,,,,p,1.302245,0,38,38,38,1,38,images/pixabay_cat_003635.jpg,images/pixabay_cat_001597.jpg,Whitney,001,2021-06-22_09h47.07.365,Cat face experiment_fully sample_901-1225,2021.1.4,Win32,59.95203837
,,,,,,p,1.3762,0,39,39,39,1,39,images/pixabay_cat_003186.jpg,images/pixabay_cat_001597.jpg,Whitney,001,2021-06-22_09h47.07.365,Cat face experiment_fully sample_901-1225,2021.1.4,Win32,59.95203837
,,,,,,q,1.010875,0,40,40,40,1,40,images/pixabay_cat_001502.jpg,images/flickr_cat_000271.jpg,Whitney,001,2021-06-22_09h47.07.365,Cat face experiment_fully sample_901-1225,2021.1.4,Win32,59.95203837
,,,,,,q,2.67123,0,41,41,41,1,41,images/pixabay_cat_001206.jpg,images/pixabay_cat_000100.jpg,Whitney,001,2021-06-22_09h47.07.365,Cat face experiment_fully sample_901-1225,2021.1.4,Win32,59.95203837
,,,,,,q,0.925355,0,42,42,42,1,42,images/flickr_cat_000581.jpg,images/flickr_cat_000206.jpg,Whitney,001,2021-06-22_09h47.07.365,Cat face experiment_fully sample_901-1225,2021.1.4,Win32,59.95203837
,,,,,,q,1.65322,0,43,43,43,1,43,images/pixabay_cat_001502.jpg,images/flickr_cat_000240.jpg,Whitney,001,2021-06-22_09h47.07.365,Cat face experiment_fully sample_901-1225,2021.1.4,Win32,59.95203837
,,,,,,p,1.21721,0,44,44,44,1,44,images/pixabay_cat_001102.jpg,images/pixabay_cat_004148.jpg,Whitney,001,2021-06-22_09h47.07.365,Cat face experiment_fully sample_901-1225,2021.1.4,Win32,59.95203837
,,,,,,q,1.11234,0,45,45,45,1,45,images/pixabay_cat_003077.jpg,images/pixabay_cat_004489.jpg,Whitney,001,2021-06-22_09h47.07.365,Cat face experiment_fully sample_901-1225,2021.1.4,Win32,59.95203837
,,,,,,q,0.981735,0,46,46,46,1,46,images/pixabay_cat_004489.jpg,images/pixabay_cat_003638.jpg,Whitney,001,2021-06-22_09h47.07.365,Cat face experiment_fully sample_901-1225,2021.1.4,Win32,59.95203837
,,,,,,p,1.503885,0,47,47,47,1,47,images/pixabay_cat_003635.jpg,images/flickr_cat_000022.jpg,Whitney,001,2021-06-22_09h47.07.365,Cat face experiment_fully sample_901-1225,2021.1.4,Win32,59.95203837
,,,,,,q,1.130635,0,48,48,48,1,48,images/pixabay_cat_000260.jpg,images/pixabay_cat_003425.jpg,Whitney,001,2021-06-22_09h47.07.365,Cat face experiment_fully sample_901-1225,2021.1.4,Win32,59.95203837
,,,,,,p,2.896445,0,49,49,49,1,49,images/pixabay_cat_002614.jpg,images/pixabay_cat_001206.jpg,Whitney,001,2021-06-22_09h47.07.365,Cat face experiment_fully sample_901-1225,2021.1.4,Win32,59.95203837
,,,,,,p,0.948125,0,50,50,50,1,50,images/pixabay_cat_003927.jpg,images/pixabay_cat_000883.jpg,Whitney,001,2021-06-22_09h47.07.365,Cat face experiment_fully sample_901-1225,2021.1.4,Win32,59.95203837
,,,,,,q,1.020665,0,51,51,51,1,51,images/flickr_cat_000206.jpg,images/flickr_cat_000271.jpg,Whitney,001,2021-06-22_09h47.07.365,Cat face experiment_fully sample_901-1225,2021.1.4,Win32,59.95203837
,,,,,,q,0.877715,0,52,52,52,1,52,images/pixabay_cat_000120.jpg,images/pixabay_cat_001862.jpg,Whitney,001,2021-06-22_09h47.07.365,Cat face experiment_fully sample_901-1225,2021.1.4,Win32,59.95203837
,,,,,,q,1.985135,0,53,53,53,1,53,images/pixabay_cat_004049.jpg,images/pixabay_cat_000100.jpg,Whitney,001,2021-06-22_09h47.07.365,Cat face experiment_fully sample_901-1225,2021.1.4,Win32,59.95203837
,,,,,,p,1.784675,0,54,54,54,1,54,images/pixabay_cat_001102.jpg,images/pixabay_cat_002614.jpg,Whitney,001,2021-06-22_09h47.07.365,Cat face experiment_fully sample_901-1225,2021.1.4,Win32,59.95203837
,,,,,,q,0.960725,0,55,55,55,1,55,images/pixabay_cat_004292.jpg,images/pixabay_cat_000100.jpg,Whitney,001,2021-06-22_09h47.07.365,Cat face experiment_fully sample_901-1225,2021.1.4,Win32,59.95203837
,,,,,,q,0.944965,0,56,56,56,1,56,images/pixabay_cat_000411.jpg,images/pixabay_cat_004641.jpg,Whitney,001,2021-06-22_09h47.07.365,Cat face experiment_fully sample_901-1225,2021.1.4,Win32,59.95203837
,,,,,,q,0.944405,0,57,57,57,1,57,images/flickr_cat_000022.jpg,images/pixabay_cat_001284.jpg,Whitney,001,2021-06-22_09h47.07.365,Cat face experiment_fully sample_901-1225,2021.1.4,Win32,59.95203837
,,,,,,p,1.04948,0,58,58,58,1,58,images/pixabay_cat_003077.jpg,images/pixabay_cat_001862.jpg,Whitney,001,2021-06-22_09h47.07.365,Cat face experiment_fully sample_901-1225,2021.1.4,Win32,59.95203837
,,,,,,q,1.411305,0,59,59,59,1,59,images/pixabay_cat_000411.jpg,images/pixabay_cat_002690.jpg,Whitney,001,2021-06-22_09h47.07.365,Cat face experiment_fully sample_901-1225,2021.1.4,Win32,59.95203837
,,,,,,p,0.96688,0,60,60,60,1,60,images/flickr_cat_000083.jpg,images/pixabay_cat_002614.jpg,Whitney,001,2021-06-22_09h47.07.365,Cat face experiment_fully sample_901-1225,2021.1.4,Win32,59.95203837
,,,,,,p,1.717545,0,61,61,61,1,61,images/pixabay_cat_002045.jpg,images/flickr_cat_000285.jpg,Whitney,001,2021-06-22_09h47.07.365,Cat face experiment_fully sample_901-1225,2021.1.4,Win32,59.95203837
,,,,,,q,1.27448,0,62,62,62,1,62,images/pixabay_cat_000411.jpg,images/pixabay_cat_000883.jpg,Whitney,001,2021-06-22_09h47.07.365,Cat face experiment_fully sample_901-1225,2021.1.4,Win32,59.95203837
,,,,,,p,1.13652,0,63,63,63,1,63,images/pixabay_cat_001805.jpg,images/flickr_cat_000200.jpg,Whitney,001,2021-06-22_09h47.07.365,Cat face experiment_fully sample_901-1225,2021.1.4,Win32,59.95203837
,,,,,,p,1.2694,0,64,64,64,1,64,images/flickr_cat_000581.jpg,images/flickr_cat_000022.jpg,Whitney,001,2021-06-22_09h47.07.365,Cat face experiment_fully sample_901-1225,2021.1.4,Win32,59.95203837
,,,,,,q,0.92671,0,65,65,65,1,65,images/pixabay_cat_003228.jpg,images/pixabay_cat_003566.jpg,Whitney,001,2021-06-22_09h47.07.365,Cat face experiment_fully sample_901-1225,2021.1.4,Win32,59.95203837
,,,,,,p,1.057235,0,66,66,66,1,66,images/flickr_cat_000206.jpg,images/flickr_cat_000200.jpg,Whitney,001,2021-06-22_09h47.07.365,Cat face experiment_fully sample_901-1225,2021.1.4,Win32,59.95203837
,,,,,,q,1.613355,0,67,67,67,1,67,images/pixabay_cat_000043.jpg,images/pixabay_cat_003121.jpg,Whitney,001,2021-06-22_09h47.07.365,Cat face experiment_fully sample_901-1225,2021.1.4,Win32,59.95203837
,,,,,,p,0.91607,0,68,68,68,1,68,images/flickr_cat_000083.jpg,images/pixabay_cat_002930.jpg,Whitney,001,2021-06-22_09h47.07.365,Cat face experiment_fully sample_901-1225,2021.1.4,Win32,59.95203837
,,,,,,p,1.141575,0,69,69,69,1,69,images/flickr_cat_000240.jpg,images/pixabay_cat_001862.jpg,Whitney,001,2021-06-22_09h47.07.365,Cat face experiment_fully sample_901-1225,2021.1.4,Win32,59.95203837
,,,,,,q,1.424255,0,70,70,70,1,70,images/flickr_cat_000266.jpg,images/pixabay_cat_002300.jpg,Whitney,001,2021-06-22_09h47.07.365,Cat face experiment_fully sample_901-1225,2021.1.4,Win32,59.95203837
,,,,,,q,1.08893,0,71,71,71,1,71,images/pixabay_cat_002690.jpg,images/pixabay_cat_003927.jpg,Whitney,001,2021-06-22_09h47.07.365,Cat face experiment_fully sample_901-1225,2021.1.4,Win32,59.95203837
,,,,,,q,0.887215,0,72,72,72,1,72,images/pixabay_cat_003228.jpg,images/pixabay_cat_002979.jpg,Whitney,001,2021-06-22_09h47.07.365,Cat face experiment_fully sample_901-1225,2021.1.4,Win32,59.95203837
,,,,,,q,0.871455,0,73,73,73,1,73,images/pixabay_cat_001206.jpg,images/pixabay_cat_001178.jpg,Whitney,001,2021-06-22_09h47.07.365,Cat face experiment_fully sample_901-1225,2021.1.4,Win32,59.95203837
,,,,,,p,1.890265,0,74,74,74,1,74,images/pixabay_cat_002601.jpg,images/pixabay_cat_001597.jpg,Whitney,001,2021-06-22_09h47.07.365,Cat face experiment_fully sample_901-1225,2021.1.4,Win32,59.95203837
,,,,,,p,1.29709,0,75,75,75,1,75,images/pixabay_cat_003635.jpg,images/pixabay_cat_002930.jpg,Whitney,001,2021-06-22_09h47.07.365,Cat face experiment_fully sample_901-1225,2021.1.4,Win32,59.95203837
,,,,,,q,2.64204,0,76,76,76,1,76,images/flickr_cat_000083.jpg,images/flickr_cat_000271.jpg,Whitney,001,2021-06-22_09h47.07.365,Cat face experiment_fully sample_901-1225,2021.1.4,Win32,59.95203837
,,,,,,p,1.11686,0,77,77,77,1,77,images/pixabay_cat_004292.jpg,images/pixabay_cat_004148.jpg,Whitney,001,2021-06-22_09h47.07.365,Cat face experiment_fully sample_901-1225,2021.1.4,Win32,59.95203837
,,,,,,q,1.174635,0,78,78,78,1,78,images/pixabay_cat_002690.jpg,images/pixabay_cat_003121.jpg,Whitney,001,2021-06-22_09h47.07.365,Cat face experiment_fully sample_901-1225,2021.1.4,Win32,59.95203837
,,,,,,p,1.03239,0,79,79,79,1,79,images/pixabay_cat_000260.jpg,images/pixabay_cat_002930.jpg,Whitney,001,2021-06-22_09h47.07.365,Cat face experiment_fully sample_901-1225,2021.1.4,Win32,59.95203837
,,,,,,p,1.4686,0,80,80,80,1,80,images/pixabay_cat_002690.jpg,images/pixabay_cat_001597.jpg,Whitney,001,2021-06-22_09h47.07.365,Cat face experiment_fully sample_901-1225,2021.1.4,Win32,59.95203837
,,,,,,p,0.875475,0,81,81,81,1,81,images/pixabay_cat_002690.jpg,images/pixabay_cat_001284.jpg,Whitney,001,2021-06-22_09h47.07.365,Cat face experiment_fully sample_901-1225,2021.1.4,Win32,59.95203837
,,,,,,p,2.385885,0,82,82,82,1,82,images/pixabay_cat_004292.jpg,images/flickr_cat_000271.jpg,Whitney,001,2021-06-22_09h47.07.365,Cat face experiment_fully sample_901-1225,2021.1.4,Win32,59.95203837
,,,,,,p,90.18061,0,83,83,83,1,83,images/pixabay_cat_002601.jpg,images/pixabay_cat_003927.jpg,Whitney,001,2021-06-22_09h47.07.365,Cat face experiment_fully sample_901-1225,2021.1.4,Win32,59.95203837
,,,,,,p,1.05108,0,84,84,84,1,84,images/flickr_cat_000240.jpg,images/pixabay_cat_000286.jpg,Whitney,001,2021-06-22_09h47.07.365,Cat face experiment_fully sample_901-1225,2021.1.4,Win32,59.95203837
,,,,,,p,1.75531,0,85,85,85,1,85,images/pixabay_cat_004489.jpg,images/flickr_cat_000271.jpg,Whitney,001,2021-06-22_09h47.07.365,Cat face experiment_fully sample_901-1225,2021.1.4,Win32,59.95203837
,,,,,,p,0.9209,0,86,86,86,1,86,images/pixabay_cat_003077.jpg,images/pixabay_cat_000120.jpg,Whitney,001,2021-06-22_09h47.07.365,Cat face experiment_fully sample_901-1225,2021.1.4,Win32,59.95203837
,,,,,,p,0.834435,0,87,87,87,1,87,images/pixabay_cat_003077.jpg,images/pixabay_cat_000286.jpg,Whitney,001,2021-06-22_09h47.07.365,Cat face experiment_fully sample_901-1225,2021.1.4,Win32,59.95203837
,,,,,,q,0.80634,0,88,88,88,1,88,images/flickr_cat_000581.jpg,images/flickr_cat_000285.jpg,Whitney,001,2021-06-22_09h47.07.365,Cat face experiment_fully sample_901-1225,2021.1.4,Win32,59.95203837
,,,,,,p,1.368345,0,89,89,89,1,89,images/pixabay_cat_003425.jpg,images/pixabay_cat_003638.jpg,Whitney,001,2021-06-22_09h47.07.365,Cat face experiment_fully sample_901-1225,2021.1.4,Win32,59.95203837
,,,,,,q,1.091025,0,90,90,90,1,90,images/flickr_cat_000581.jpg,images/pixabay_cat_003121.jpg,Whitney,001,2021-06-22_09h47.07.365,Cat face experiment_fully sample_901-1225,2021.1.4,Win32,59.95203837
,,,,,,q,1.269425,0,91,91,91,1,91,images/pixabay_cat_001304.jpg,images/pixabay_cat_000100.jpg,Whitney,001,2021-06-22_09h47.07.365,Cat face experiment_fully sample_901-1225,2021.1.4,Win32,59.95203837
,,,,,,q,0.917945,0,92,92,92,1,92,images/pixabay_cat_001502.jpg,images/pixabay_cat_000043.jpg,Whitney,001,2021-06-22_09h47.07.365,Cat face experiment_fully sample_901-1225,2021.1.4,Win32,59.95203837
,,,,,,q,0.986195,0,93,93,93,1,93,images/pixabay_cat_004489.jpg,images/pixabay_cat_002300.jpg,Whitney,001,2021-06-22_09h47.07.365,Cat face experiment_fully sample_901-1225,2021.1.4,Win32,59.95203837
,,,,,,q,0.911,0,94,94,94,1,94,images/pixabay_cat_001206.jpg,images/pixabay_cat_004148.jpg,Whitney,001,2021-06-22_09h47.07.365,Cat face experiment_fully sample_901-1225,2021.1.4,Win32,59.95203837
,,,,,,p,1.17699,0,95,95,95,1,95,images/pixabay_cat_002601.jpg,images/pixabay_cat_003121.jpg,Whitney,001,2021-06-22_09h47.07.365,Cat face experiment_fully sample_901-1225,2021.1.4,Win32,59.95203837
,,,,,,q,1.172045,0,96,96,96,1,96,images/pixabay_cat_004292.jpg,images/flickr_cat_000083.jpg,Whitney,001,2021-06-22_09h47.07.365,Cat face experiment_fully sample_901-1225,2021.1.4,Win32,59.95203837
,,,,,,p,1.12652,0,97,97,97,1,97,images/pixabay_cat_001102.jpg,images/pixabay_cat_000120.jpg,Whitney,001,2021-06-22_09h47.07.365,Cat face experiment_fully sample_901-1225,2021.1.4,Win32,59.95203837
,,,,,,p,1.358965,0,98,98,98,1,98,images/pixabay_cat_000411.jpg,images/pixabay_cat_003312.jpg,Whitney,001,2021-06-22_09h47.07.365,Cat face experiment_fully sample_901-1225,2021.1.4,Win32,59.95203837
,,,,,,q,1.92703,0,99,99,99,1,99,images/pixabay_cat_001206.jpg,images/pixabay_cat_003312.jpg,Whitney,001,2021-06-22_09h47.07.365,Cat face experiment_fully sample_901-1225,2021.1.4,Win32,59.95203837
,,,,,,q,1.001605,0,100,100,100,1,100,images/flickr_cat_000581.jpg,images/flickr_cat_000266.jpg,Whitney,001,2021-06-22_09h47.07.365,Cat face experiment_fully sample_901-1225,2021.1.4,Win32,59.95203837
,,,,,,p,0.83638,0,101,101,101,1,101,images/pixabay_cat_001265.jpg,images/pixabay_cat_001862.jpg,Whitney,001,2021-06-22_09h47.07.365,Cat face experiment_fully sample_901-1225,2021.1.4,Win32,59.95203837
,,,,,,q,1.192425,0,102,102,102,1,102,images/pixabay_cat_002690.jpg,images/pixabay_cat_001265.jpg,Whitney,001,2021-06-22_09h47.07.365,Cat face experiment_fully sample_901-1225,2021.1.4,Win32,59.95203837
,,,,,,p,0.97492,0,103,103,103,1,103,images/pixabay_cat_002690.jpg,images/pixabay_cat_001862.jpg,Whitney,001,2021-06-22_09h47.07.365,Cat face experiment_fully sample_901-1225,2021.1.4,Win32,59.95203837
,,,,,,p,1.66226,0,104,104,104,1,104,images/flickr_cat_000581.jpg,images/pixabay_cat_002930.jpg,Whitney,001,2021-06-22_09h47.07.365,Cat face experiment_fully sample_901-1225,2021.1.4,Win32,59.95203837
,,,,,,q,1.089055,0,105,105,105,1,105,images/pixabay_cat_003566.jpg,images/pixabay_cat_002614.jpg,Whitney,001,2021-06-22_09h47.07.365,Cat face experiment_fully sample_901-1225,2021.1.4,Win32,59.95203837
,,,,,,p,4.02055,0,106,106,106,1,106,images/flickr_cat_000206.jpg,images/pixabay_cat_001206.jpg,Whitney,001,2021-06-22_09h47.07.365,Cat face experiment_fully sample_901-1225,2021.1.4,Win32,59.95203837
,,,,,,q,1.75881,0,107,107,107,1,107,images/pixabay_cat_001597.jpg,images/pixabay_cat_002045.jpg,Whitney,001,2021-06-22_09h47.07.365,Cat face experiment_fully sample_901-1225,2021.1.4,Win32,59.95203837
,,,,,,q,2.55186,0,108,108,108,1,108,images/flickr_cat_000083.jpg,images/pixabay_cat_001206.jpg,Whitney,001,2021-06-22_09h47.07.365,Cat face experiment_fully sample_901-1225,2021.1.4,Win32,59.95203837
,,,,,,p,1.27383,0,109,109,109,1,109,images/pixabay_cat_002979.jpg,images/pixabay_cat_000286.jpg,Whitney,001,2021-06-22_09h47.07.365,Cat face experiment_fully sample_901-1225,2021.1.4,Win32,59.95203837
,,,,,,q,0.98387,0,110,110,110,1,110,images/pixabay_cat_003077.jpg,images/pixabay_cat_002300.jpg,Whitney,001,2021-06-22_09h47.07.365,Cat face experiment_fully sample_901-1225,2021.1.4,Win32,59.95203837
,,,,,,p,1.29111,0,111,111,111,1,111,images/pixabay_cat_004049.jpg,images/pixabay_cat_002930.jpg,Whitney,001,2021-06-22_09h47.07.365,Cat face experiment_fully sample_901-1225,2021.1.4,Win32,59.95203837
,,,,,,q,1.1427,0,112,112,112,1,112,images/flickr_cat_000285.jpg,images/pixabay_cat_002300.jpg,Whitney,001,2021-06-22_09h47.07.365,Cat face experiment_fully sample_901-1225,2021.1.4,Win32,59.95203837
,,,,,,p,1.61448,0,113,113,113,1,113,images/pixabay_cat_003635.jpg,images/pixabay_cat_003566.jpg,Whitney,001,2021-06-22_09h47.07.365,Cat face experiment_fully sample_901-1225,2021.1.4,Win32,59.95203837
,,,,,,q,1.066785,0,114,114,114,1,114,images/pixabay_cat_003228.jpg,images/pixabay_cat_004049.jpg,Whitney,001,2021-06-22_09h47.07.365,Cat face experiment_fully sample_901-1225,2021.1.4,Win32,59.95203837
,,,,,,q,0.845915,0,115,115,115,1,115,images/flickr_cat_000581.jpg,images/pixabay_cat_002045.jpg,Whitney,001,2021-06-22_09h47.07.365,Cat face experiment_fully sample_901-1225,2021.1.4,Win32,59.95203837
,,,,,,p,0.88048,0,116,116,116,1,116,images/pixabay_cat_001178.jpg,images/pixabay_cat_000286.jpg,Whitney,001,2021-06-22_09h47.07.365,Cat face experiment_fully sample_901-1225,2021.1.4,Win32,59.95203837
,,,,,,q,1.200885,0,117,117,117,1,117,images/pixabay_cat_003425.jpg,images/pixabay_cat_003927.jpg,Whitney,001,2021-06-22_09h47.07.365,Cat face experiment_fully sample_901-1225,2021.1.4,Win32,59.95203837
,,,,,,p,0.888775,0,118,118,118,1,118,images/pixabay_cat_002601.jpg,images/pixabay_cat_000120.jpg,Whitney,001,2021-06-22_09h47.07.365,Cat face experiment_fully sample_901-1225,2021.1.4,Win32,59.95203837
,,,,,,p,2.091345,0,119,119,119,1,119,images/pixabay_cat_003635.jpg,images/pixabay_cat_003927.jpg,Whitney,001,2021-06-22_09h47.07.365,Cat face experiment_fully sample_901-1225,2021.1.4,Win32,59.95203837
,,,,,,q,0.96882,0,120,120,120,1,120,images/pixabay_cat_002045.jpg,images/pixabay_cat_001304.jpg,Whitney,001,2021-06-22_09h47.07.365,Cat face experiment_fully sample_901-1225,2021.1.4,Win32,59.95203837
,,,,,,q,1.09906,0,121,121,121,1,121,images/pixabay_cat_003566.jpg,images/pixabay_cat_000100.jpg,Whitney,001,2021-06-22_09h47.07.365,Cat face experiment_fully sample_901-1225,2021.1.4,Win32,59.95203837
,,,,,,q,1.12069,0,122,122,122,1,122,images/pixabay_cat_003077.jpg,images/pixabay_cat_003121.jpg,Whitney,001,2021-06-22_09h47.07.365,Cat face experiment_fully sample_901-1225,2021.1.4,Win32,59.95203837
,,,,,,q,0.88792,0,123,123,123,1,123,images/flickr_cat_000022.jpg,images/pixabay_cat_001206.jpg,Whitney,001,2021-06-22_09h47.07.365,Cat face experiment_fully sample_901-1225,2021.1.4,Win32,59.95203837
,,,,,,p,0.945555,0,124,124,124,1,124,images/flickr_cat_000266.jpg,images/pixabay_cat_001284.jpg,Whitney,001,2021-06-22_09h47.07.365,Cat face experiment_fully sample_901-1225,2021.1.4,Win32,59.95203837
,,,,,,p,0.883365,0,125,125,125,1,125,images/pixabay_cat_002979.jpg,images/pixabay_cat_003121.jpg,Whitney,001,2021-06-22_09h47.07.365,Cat face experiment_fully sample_901-1225,2021.1.4,Win32,59.95203837
,,,,,,q,0.871775,0,126,126,126,1,126,images/pixabay_cat_003425.jpg,images/flickr_cat_000083.jpg,Whitney,001,2021-06-22_09h47.07.365,Cat face experiment_fully sample_901-1225,2021.1.4,Win32,59.95203837
,,,,,,p,1.95294,0,127,127,127,1,127,images/pixabay_cat_003425.jpg,images/pixabay_cat_001206.jpg,Whitney,001,2021-06-22_09h47.07.365,Cat face experiment_fully sample_901-1225,2021.1.4,Win32,59.95203837
,,,,,,p,0.65571,0,128,128,128,1,128,images/pixabay_cat_003635.jpg,images/flickr_cat_000200.jpg,Whitney,001,2021-06-22_09h47.07.365,Cat face experiment_fully sample_901-1225,2021.1.4,Win32,59.95203837
,,,,,,q,0.952595,0,129,129,129,1,129,images/pixabay_cat_001502.jpg,images/pixabay_cat_001206.jpg,Whitney,001,2021-06-22_09h47.07.365,Cat face experiment_fully sample_901-1225,2021.1.4,Win32,59.95203837
,,,,,,q,1.552395,0,130,130,130,1,130,images/pixabay_cat_004292.jpg,images/pixabay_cat_003638.jpg,Whitney,001,2021-06-22_09h47.07.365,Cat face experiment_fully sample_901-1225,2021.1.4,Win32,59.95203837
,,,,,,q,0.867465,0,131,131,131,1,131,images/flickr_cat_000581.jpg,images/pixabay_cat_001284.jpg,Whitney,001,2021-06-22_09h47.07.365,Cat face experiment_fully sample_901-1225,2021.1.4,Win32,59.95203837
,,,,,,q,1.452645,0,132,132,132,1,132,images/pixabay_cat_000043.jpg,images/pixabay_cat_000100.jpg,Whitney,001,2021-06-22_09h47.07.365,Cat face experiment_fully sample_901-1225,2021.1.4,Win32,59.95203837
,,,,,,p,1.11573,0,133,133,133,1,133,images/flickr_cat_000083.jpg,images/pixabay_cat_001862.jpg,Whitney,001,2021-06-22_09h47.07.365,Cat face experiment_fully sample_901-1225,2021.1.4,Win32,59.95203837
,,,,,,q,1.351835,0,134,134,134,1,134,images/pixabay_cat_001284.jpg,images/pixabay_cat_000883.jpg,Whitney,001,2021-06-22_09h47.07.365,Cat face experiment_fully sample_901-1225,2021.1.4,Win32,59.95203837
,,,,,,q,1.050925,0,135,135,135,1,135,images/pixabay_cat_001265.jpg,images/pixabay_cat_004148.jpg,Whitney,001,2021-06-22_09h47.07.365,Cat face experiment_fully sample_901-1225,2021.1.4,Win32,59.95203837
,,,,,,q,1.25106,0,136,136,136,1,136,images/pixabay_cat_000260.jpg,images/flickr_cat_000266.jpg,Whitney,001,2021-06-22_09h47.07.365,Cat face experiment_fully sample_901-1225,2021.1.4,Win32,59.95203837
,,,,,,p,1.144285,0,137,137,137,1,137,images/flickr_cat_000266.jpg,images/pixabay_cat_004148.jpg,Whitney,001,2021-06-22_09h47.07.365,Cat face experiment_fully sample_901-1225,2021.1.4,Win32,59.95203837
,,,,,,p,0.922075,0,138,138,138,1,138,images/pixabay_cat_001102.jpg,images/pixabay_cat_003312.jpg,Whitney,001,2021-06-22_09h47.07.365,Cat face experiment_fully sample_901-1225,2021.1.4,Win32,59.95203837
,,,,,,q,0.8062,0,139,139,139,1,139,images/flickr_cat_000285.jpg,images/pixabay_cat_001160.jpg,Whitney,001,2021-06-22_09h47.07.365,Cat face experiment_fully sample_901-1225,2021.1.4,Win32,59.95203837
,,,,,,q,0.88538,0,140,140,140,1,140,images/flickr_cat_000022.jpg,images/pixabay_cat_000883.jpg,Whitney,001,2021-06-22_09h47.07.365,Cat face experiment_fully sample_901-1225,2021.1.4,Win32,59.95203837
,,,,,,p,1.101425,0,141,141,141,1,141,images/pixabay_cat_003635.jpg,images/pixabay_cat_000883.jpg,Whitney,001,2021-06-22_09h47.07.365,Cat face experiment_fully sample_901-1225,2021.1.4,Win32,59.95203837
,,,,,,q,1.027535,0,142,142,142,1,142,images/flickr_cat_000022.jpg,images/flickr_cat_000206.jpg,Whitney,001,2021-06-22_09h47.07.365,Cat face experiment_fully sample_901-1225,2021.1.4,Win32,59.95203837
,,,,,,p,0.90567,0,143,143,143,1,143,images/pixabay_cat_001102.jpg,images/flickr_cat_000022.jpg,Whitney,001,2021-06-22_09h47.07.365,Cat face experiment_fully sample_901-1225,2021.1.4,Win32,59.95203837
,,,,,,p,0.88364,0,144,144,144,1,144,images/pixabay_cat_003228.jpg,images/pixabay_cat_000286.jpg,Whitney,001,2021-06-22_09h47.07.365,Cat face experiment_fully sample_901-1225,2021.1.4,Win32,59.95203837
,,,,,,q,0.85511,0,145,145,145,1,145,images/pixabay_cat_000411.jpg,images/pixabay_cat_002300.jpg,Whitney,001,2021-06-22_09h47.07.365,Cat face experiment_fully sample_901-1225,2021.1.4,Win32,59.95203837
,,,,,,q,0.700195,0,146,146,146,1,146,images/pixabay_cat_002690.jpg,images/flickr_cat_000271.jpg,Whitney,001,2021-06-22_09h47.07.365,Cat face experiment_fully sample_901-1225,2021.1.4,Win32,59.95203837
,,,,,,q,0.767645,0,147,147,147,1,147,images/pixabay_cat_000120.jpg,images/pixabay_cat_004049.jpg,Whitney,001,2021-06-22_09h47.07.365,Cat face experiment_fully sample_901-1225,2021.1.4,Win32,59.95203837
,,,,,,q,1.034365,0,148,148,148,1,148,images/flickr_cat_000022.jpg,images/pixabay_cat_001265.jpg,Whitney,001,2021-06-22_09h47.07.365,Cat face experiment_fully sample_901-1225,2021.1.4,Win32,59.95203837
,,,,,,q,1.054335,0,149,149,149,1,149,images/pixabay_cat_000411.jpg,images/pixabay_cat_004148.jpg,Whitney,001,2021-06-22_09h47.07.365,Cat face experiment_fully sample_901-1225,2021.1.4,Win32,59.95203837
,,,,,,q,0.9861,0,150,150,150,1,150,images/pixabay_cat_001160.jpg,images/pixabay_cat_002300.jpg,Whitney,001,2021-06-22_09h47.07.365,Cat face experiment_fully sample_901-1225,2021.1.4,Win32,59.95203837
,,,,,,p,2.3518,0,151,151,151,1,151,images/pixabay_cat_001160.jpg,images/pixabay_cat_000883.jpg,Whitney,001,2021-06-22_09h47.07.365,Cat face experiment_fully sample_901-1225,2021.1.4,Win32,59.95203837
,,,,,,q,1.054805,0,152,152,152,1,152,images/pixabay_cat_003077.jpg,images/pixabay_cat_004049.jpg,Whitney,001,2021-06-22_09h47.07.365,Cat face experiment_fully sample_901-1225,2021.1.4,Win32,59.95203837
,,,,,,q,0.87458,0,153,153,153,1,153,images/pixabay_cat_004489.jpg,images/pixabay_cat_001160.jpg,Whitney,001,2021-06-22_09h47.07.365,Cat face experiment_fully sample_901-1225,2021.1.4,Win32,59.95203837
,,,,,,q,0.721925,0,154,154,154,1,154,images/pixabay_cat_000260.jpg,images/pixabay_cat_002614.jpg,Whitney,001,2021-06-22_09h47.07.365,Cat face experiment_fully sample_901-1225,2021.1.4,Win32,59.95203837
,,,,,,q,0.74581,0,155,155,155,1,155,images/pixabay_cat_002614.jpg,images/flickr_cat_000200.jpg,Whitney,001,2021-06-22_09h47.07.365,Cat face experiment_fully sample_901-1225,2021.1.4,Win32,59.95203837
,,,,,,q,1.41547,0,156,156,156,1,156,images/pixabay_cat_002601.jpg,images/pixabay_cat_001805.jpg,Whitney,001,2021-06-22_09h47.07.365,Cat face experiment_fully sample_901-1225,2021.1.4,Win32,59.95203837
,,,,,,q,0.70793,0,157,157,157,1,157,images/flickr_cat_000285.jpg,images/pixabay_cat_004148.jpg,Whitney,001,2021-06-22_09h47.07.365,Cat face experiment_fully sample_901-1225,2021.1.4,Win32,59.95203837
,,,,,,q,1.045245,0,158,158,158,1,158,images/pixabay_cat_001102.jpg,images/pixabay_cat_004049.jpg,Whitney,001,2021-06-22_09h47.07.365,Cat face experiment_fully sample_901-1225,2021.1.4,Win32,59.95203837
,,,,,,q,0.85232,0,159,159,159,1,159,images/pixabay_cat_000260.jpg,images/pixabay_cat_003186.jpg,Whitney,001,2021-06-22_09h47.07.365,Cat face experiment_fully sample_901-1225,2021.1.4,Win32,59.95203837
,,,,,,p,1.162625,0,160,160,160,1,160,images/pixabay_cat_003186.jpg,images/flickr_cat_000271.jpg,Whitney,001,2021-06-22_09h47.07.365,Cat face experiment_fully sample_901-1225,2021.1.4,Win32,59.95203837
,,,,,,q,1.084355,0,161,161,161,1,161,images/pixabay_cat_001102.jpg,images/pixabay_cat_004641.jpg,Whitney,001,2021-06-22_09h47.07.365,Cat face experiment_fully sample_901-1225,2021.1.4,Win32,59.95203837
,,,,,,q,31.38615,0,162,162,162,1,162,images/pixabay_cat_001265.jpg,images/pixabay_cat_003121.jpg,Whitney,001,2021-06-22_09h47.07.365,Cat face experiment_fully sample_901-1225,2021.1.4,Win32,59.95203837
,,,,,,q,3.06119,0,163,163,163,1,163,images/pixabay_cat_004292.jpg,images/pixabay_cat_001160.jpg,Whitney,001,2021-06-22_09h47.07.365,Cat face experiment_fully sample_901-1225,2021.1.4,Win32,59.95203837
,,,,,,q,1.47613,0,164,164,164,1,164,images/pixabay_cat_002979.jpg,images/pixabay_cat_002300.jpg,Whitney,001,2021-06-22_09h47.07.365,Cat face experiment_fully sample_901-1225,2021.1.4,Win32,59.95203837
,,,,,,p,2.72682,0,165,165,165,1,165,images/pixabay_cat_003425.jpg,images/pixabay_cat_001304.jpg,Whitney,001,2021-06-22_09h47.07.365,Cat face experiment_fully sample_901-1225,2021.1.4,Win32,59.95203837
,,,,,,q,1.03655,0,166,166,166,1,166,images/flickr_cat_000240.jpg,images/pixabay_cat_002930.jpg,Whitney,001,2021-06-22_09h47.07.365,Cat face experiment_fully sample_901-1225,2021.1.4,Win32,59.95203837
,,,,,,q,1.01556,0,167,167,167,1,167,images/pixabay_cat_000043.jpg,images/pixabay_cat_003566.jpg,Whitney,001,2021-06-22_09h47.07.365,Cat face experiment_fully sample_901-1225,2021.1.4,Win32,59.95203837
,,,,,,q,1.14932,0,168,168,168,1,168,images/pixabay_cat_004292.jpg,images/pixabay_cat_002979.jpg,Whitney,001,2021-06-22_09h47.07.365,Cat face experiment_fully sample_901-1225,2021.1.4,Win32,59.95203837
,,,,,,q,0.888375,0,169,169,169,1,169,images/pixabay_cat_000411.jpg,images/pixabay_cat_001597.jpg,Whitney,001,2021-06-22_09h47.07.365,Cat face experiment_fully sample_901-1225,2021.1.4,Win32,59.95203837
,,,,,,q,1.86919,0,170,170,170,1,170,images/pixabay_cat_003635.jpg,images/pixabay_cat_002300.jpg,Whitney,001,2021-06-22_09h47.07.365,Cat face experiment_fully sample_901-1225,2021.1.4,Win32,59.95203837
,,,,,,q,2.18759,0,171,171,171,1,171,images/pixabay_cat_003566.jpg,images/pixabay_cat_002930.jpg,Whitney,001,2021-06-22_09h47.07.365,Cat face experiment_fully sample_901-1225,2021.1.4,Win32,59.95203837
,,,,,,q,1.29875,0,172,172,172,1,172,images/pixabay_cat_002045.jpg,images/pixabay_cat_002614.jpg,Whitney,001,2021-06-22_09h47.07.365,Cat face experiment_fully sample_901-1225,2021.1.4,Win32,59.95203837
,,,,,,p,1.06033,0,173,173,173,1,173,images/pixabay_cat_003425.jpg,images/pixabay_cat_000043.jpg,Whitney,001,2021-06-22_09h47.07.365,Cat face experiment_fully sample_901-1225,2021.1.4,Win32,59.95203837
,,,,,,p,2.19913,0,174,174,174,1,174,images/pixabay_cat_003077.jpg,images/pixabay_cat_002979.jpg,Whitney,001,2021-06-22_09h47.07.365,Cat face experiment_fully sample_901-1225,2021.1.4,Win32,59.95203837
,,,,,,p,1.153495,0,175,175,175,1,175,images/pixabay_cat_004641.jpg,images/pixabay_cat_000120.jpg,Whitney,001,2021-06-22_09h47.07.365,Cat face experiment_fully sample_901-1225,2021.1.4,Win32,59.95203837
,,,,,,p,2.756075,0,176,176,176,1,176,images/pixabay_cat_001502.jpg,images/flickr_cat_000022.jpg,Whitney,001,2021-06-22_09h47.07.365,Cat face experiment_fully sample_901-1225,2021.1.4,Win32,59.95203837
,,,,,,q,1.29207,0,177,177,177,1,177,images/pixabay_cat_004148.jpg,images/pixabay_cat_001805.jpg,Whitney,001,2021-06-22_09h47.07.365,Cat face experiment_fully sample_901-1225,2021.1.4,Win32,59.95203837
,,,,,,p,11.88989,0,178,178,178,1,178,images/pixabay_cat_003077.jpg,images/pixabay_cat_000883.jpg,Whitney,001,2021-06-22_09h47.07.365,Cat face experiment_fully sample_901-1225,2021.1.4,Win32,59.95203837
,,,,,,q,1.20905,0,179,179,179,1,179,images/flickr_cat_000581.jpg,images/pixabay_cat_001502.jpg,Whitney,001,2021-06-22_09h47.07.365,Cat face experiment_fully sample_901-1225,2021.1.4,Win32,59.95203837
,,,,,,p,0.94782,0,180,180,180,1,180,images/pixabay_cat_001102.jpg,images/pixabay_cat_001284.jpg,Whitney,001,2021-06-22_09h47.07.365,Cat face experiment_fully sample_901-1225,2021.1.4,Win32,59.95203837
,,,,,,p,1.11201,0,181,181,181,1,181,images/pixabay_cat_003635.jpg,images/pixabay_cat_002614.jpg,Whitney,001,2021-06-22_09h47.07.365,Cat face experiment_fully sample_901-1225,2021.1.4,Win32,59.95203837
,,,,,,q,1.24429,0,182,182,182,1,182,images/pixabay_cat_003077.jpg,images/flickr_cat_000271.jpg,Whitney,001,2021-06-22_09h47.07.365,Cat face experiment_fully sample_901-1225,2021.1.4,Win32,59.95203837
,,,,,,q,1.116565,0,183,183,183,1,183,images/flickr_cat_000581.jpg,images/pixabay_cat_004049.jpg,Whitney,001,2021-06-22_09h47.07.365,Cat face experiment_fully sample_901-1225,2021.1.4,Win32,59.95203837
,,,,,,q,9.6838,0,184,184,184,1,184,images/pixabay_cat_001206.jpg,images/pixabay_cat_002300.jpg,Whitney,001,2021-06-22_09h47.07.365,Cat face experiment_fully sample_901-1225,2021.1.4,Win32,59.95203837
,,,,,,p,1.268805,0,185,185,185,1,185,images/pixabay_cat_004641.jpg,images/flickr_cat_000200.jpg,Whitney,001,2021-06-22_09h47.07.365,Cat face experiment_fully sample_901-1225,2021.1.4,Win32,59.95203837
,,,,,,p,0.95854,0,186,186,186,1,186,images/pixabay_cat_004489.jpg,images/pixabay_cat_001284.jpg,Whitney,001,2021-06-22_09h47.07.365,Cat face experiment_fully sample_901-1225,2021.1.4,Win32,59.95203837
,,,,,,p,0.881305,0,187,187,187,1,187,images/pixabay_cat_004292.jpg,images/pixabay_cat_004641.jpg,Whitney,001,2021-06-22_09h47.07.365,Cat face experiment_fully sample_901-1225,2021.1.4,Win32,59.95203837
,,,,,,p,1.00897,0,188,188,188,1,188,images/pixabay_cat_003927.jpg,images/pixabay_cat_001206.jpg,Whitney,001,2021-06-22_09h47.07.365,Cat face experiment_fully sample_901-1225,2021.1.4,Win32,59.95203837
,,,,,,p,0.83986,0,189,189,189,1,189,images/pixabay_cat_000043.jpg,images/flickr_cat_000285.jpg,Whitney,001,2021-06-22_09h47.07.365,Cat face experiment_fully sample_901-1225,2021.1.4,Win32,59.95203837
,,,,,,p,0.764885,0,190,190,190,1,190,images/flickr_cat_000206.jpg,images/pixabay_cat_001862.jpg,Whitney,001,2021-06-22_09h47.07.365,Cat face experiment_fully sample_901-1225,2021.1.4,Win32,59.95203837
,,,,,,p,1.7901,0,191,191,191,1,191,images/flickr_cat_000271.jpg,images/pixabay_cat_003638.jpg,Whitney,001,2021-06-22_09h47.07.365,Cat face experiment_fully sample_901-1225,2021.1.4,Win32,59.95203837
,,,,,,q,1.18076,0,192,192,192,1,192,images/pixabay_cat_000043.jpg,images/pixabay_cat_003186.jpg,Whitney,001,2021-06-22_09h47.07.365,Cat face experiment_fully sample_901-1225,2021.1.4,Win32,59.95203837
,,,,,,q,0.94371,0,193,193,193,1,193,images/pixabay_cat_002045.jpg,images/pixabay_cat_000286.jpg,Whitney,001,2021-06-22_09h47.07.365,Cat face experiment_fully sample_901-1225,2021.1.4,Win32,59.95203837
,,,,,,p,2.371945,0,194,194,194,1,194,images/pixabay_cat_002979.jpg,images/pixabay_cat_003927.jpg,Whitney,001,2021-06-22_09h47.07.365,Cat face experiment_fully sample_901-1225,2021.1.4,Win32,59.95203837
,,,,,,q,1.04941,0,195,195,195,1,195,images/flickr_cat_000206.jpg,images/pixabay_cat_001304.jpg,Whitney,001,2021-06-22_09h47.07.365,Cat face experiment_fully sample_901-1225,2021.1.4,Win32,59.95203837
,,,,,,q,1.269015,0,196,196,196,1,196,images/pixabay_cat_003425.jpg,images/pixabay_cat_003077.jpg,Whitney,001,2021-06-22_09h47.07.365,Cat face experiment_fully sample_901-1225,2021.1.4,Win32,59.95203837
,,,,,,p,1.285335,0,197,197,197,1,197,images/pixabay_cat_004292.jpg,images/flickr_cat_000240.jpg,Whitney,001,2021-06-22_09h47.07.365,Cat face experiment_fully sample_901-1225,2021.1.4,Win32,59.95203837
,,,,,,q,0.94446,0,198,198,198,1,198,images/pixabay_cat_003228.jpg,images/flickr_cat_000083.jpg,Whitney,001,2021-06-22_09h47.07.365,Cat face experiment_fully sample_901-1225,2021.1.4,Win32,59.95203837
,,,,,,p,1.1273,0,199,199,199,1,199,images/pixabay_cat_004489.jpg,images/pixabay_cat_002930.jpg,Whitney,001,2021-06-22_09h47.07.365,Cat face experiment_fully sample_901-1225,2021.1.4,Win32,59.95203837
,,,,,,q,1.17677,0,200,200,200,1,200,images/pixabay_cat_000411.jpg,images/pixabay_cat_001304.jpg,Whitney,001,2021-06-22_09h47.07.365,Cat face experiment_fully sample_901-1225,2021.1.4,Win32,59.95203837
,,,,,,q,0.993695,0,201,201,201,1,201,images/pixabay_cat_000043.jpg,images/flickr_cat_000083.jpg,Whitney,001,2021-06-22_09h47.07.365,Cat face experiment_fully sample_901-1225,2021.1.4,Win32,59.95203837
,,,,,,p,1.244805,0,202,202,202,1,202,images/pixabay_cat_000411.jpg,images/flickr_cat_000200.jpg,Whitney,001,2021-06-22_09h47.07.365,Cat face experiment_fully sample_901-1225,2021.1.4,Win32,59.95203837
,,,,,,q,1.09278,0,203,203,203,1,203,images/flickr_cat_000285.jpg,images/pixabay_cat_003121.jpg,Whitney,001,2021-06-22_09h47.07.365,Cat face experiment_fully sample_901-1225,2021.1.4,Win32,59.95203837
,,,,,,p,1.935815,0,204,204,204,1,204,images/pixabay_cat_001102.jpg,images/pixabay_cat_001206.jpg,Whitney,001,2021-06-22_09h47.07.365,Cat face experiment_fully sample_901-1225,2021.1.4,Win32,59.95203837
,,,,,,q,2.24398,0,205,205,205,1,205,images/pixabay_cat_002979.jpg,images/pixabay_cat_001178.jpg,Whitney,001,2021-06-22_09h47.07.365,Cat face experiment_fully sample_901-1225,2021.1.4,Win32,59.95203837
,,,,,,q,1.19688,0,206,206,206,1,206,images/pixabay_cat_003566.jpg,images/pixabay_cat_000883.jpg,Whitney,001,2021-06-22_09h47.07.365,Cat face experiment_fully sample_901-1225,2021.1.4,Win32,59.95203837
,,,,,,q,1.9998,0,207,207,207,1,207,images/pixabay_cat_000260.jpg,images/pixabay_cat_001304.jpg,Whitney,001,2021-06-22_09h47.07.365,Cat face experiment_fully sample_901-1225,2021.1.4,Win32,59.95203837
,,,,,,p,43.089185,0,208,208,208,1,208,images/flickr_cat_000266.jpg,images/pixabay_cat_004489.jpg,Whitney,001,2021-06-22_09h47.07.365,Cat face experiment_fully sample_901-1225,2021.1.4,Win32,59.95203837
,,,,,,q,2.210095,0,209,209,209,1,209,images/pixabay_cat_002601.jpg,images/pixabay_cat_002979.jpg,Whitney,001,2021-06-22_09h47.07.365,Cat face experiment_fully sample_901-1225,2021.1.4,Win32,59.95203837
,,,,,,q,0.994405,0,210,210,210,1,210,images/pixabay_cat_002045.jpg,images/pixabay_cat_002300.jpg,Whitney,001,2021-06-22_09h47.07.365,Cat face experiment_fully sample_901-1225,2021.1.4,Win32,59.95203837
,,,,,,p,1.05199,0,211,211,211,1,211,images/pixabay_cat_003186.jpg,images/flickr_cat_000206.jpg,Whitney,001,2021-06-22_09h47.07.365,Cat face experiment_fully sample_901-1225,2021.1.4,Win32,59.95203837
,,,,,,p,0.820155,0,212,212,212,1,212,images/pixabay_cat_004489.jpg,images/pixabay_cat_002045.jpg,Whitney,001,2021-06-22_09h47.07.365,Cat face experiment_fully sample_901-1225,2021.1.4,Win32,59.95203837
,,,,,,q,1.40862,0,213,213,213,1,213,images/pixabay_cat_004641.jpg,images/flickr_cat_000206.jpg,Whitney,001,2021-06-22_09h47.07.365,Cat face experiment_fully sample_901-1225,2021.1.4,Win32,59.95203837
,,,,,,q,1.37938,0,214,214,214,1,214,images/pixabay_cat_000411.jpg,images/pixabay_cat_000286.jpg,Whitney,001,2021-06-22_09h47.07.365,Cat face experiment_fully sample_901-1225,2021.1.4,Win32,59.95203837
,,,,,,p,1.144975,0,215,215,215,1,215,images/pixabay_cat_000260.jpg,images/pixabay_cat_001862.jpg,Whitney,001,2021-06-22_09h47.07.365,Cat face experiment_fully sample_901-1225,2021.1.4,Win32,59.95203837
,,,,,,p,0.93766,0,216,216,216,1,216,images/pixabay_cat_004049.jpg,images/pixabay_cat_001862.jpg,Whitney,001,2021-06-22_09h47.07.365,Cat face experiment_fully sample_901-1225,2021.1.4,Win32,59.95203837
,,,,,,p,1.039195,0,217,217,217,1,217,images/pixabay_cat_001160.jpg,images/flickr_cat_000271.jpg,Whitney,001,2021-06-22_09h47.07.365,Cat face experiment_fully sample_901-1225,2021.1.4,Win32,59.95203837
,,,,,,p,1.1514,0,218,218,218,1,218,images/pixabay_cat_004641.jpg,images/pixabay_cat_004182.jpg,Whitney,001,2021-06-22_09h47.07.365,Cat face experiment_fully sample_901-1225,2021.1.4,Win32,59.95203837
,,,,,,q,1.065465,0,219,219,219,1,219,images/flickr_cat_000240.jpg,images/pixabay_cat_003927.jpg,Whitney,001,2021-06-22_09h47.07.365,Cat face experiment_fully sample_901-1225,2021.1.4,Win32,59.95203837
,,,,,,p,1.067795,0,220,220,220,1,220,images/pixabay_cat_003077.jpg,images/flickr_cat_000285.jpg,Whitney,001,2021-06-22_09h47.07.365,Cat face experiment_fully sample_901-1225,2021.1.4,Win32,59.95203837
,,,,,,p,1.337545,0,221,221,221,1,221,images/flickr_cat_000266.jpg,images/pixabay_cat_000286.jpg,Whitney,001,2021-06-22_09h47.07.365,Cat face experiment_fully sample_901-1225,2021.1.4,Win32,59.95203837
,,,,,,p,1.16015,0,222,222,222,1,222,images/pixabay_cat_003425.jpg,images/pixabay_cat_002979.jpg,Whitney,001,2021-06-22_09h47.07.365,Cat face experiment_fully sample_901-1225,2021.1.4,Win32,59.95203837
,,,,,,p,1.683425,0,223,223,223,1,223,images/pixabay_cat_003927.jpg,images/pixabay_cat_003312.jpg,Whitney,001,2021-06-22_09h47.07.365,Cat face experiment_fully sample_901-1225,2021.1.4,Win32,59.95203837
,,,,,,p,0.86536,0,224,224,224,1,224,images/pixabay_cat_004148.jpg,images/pixabay_cat_002930.jpg,Whitney,001,2021-06-22_09h47.07.365,Cat face experiment_fully sample_901-1225,2021.1.4,Win32,59.95203837
,,,,,,q,1.52147,0,225,225,225,1,225,images/pixabay_cat_003425.jpg,images/flickr_cat_000266.jpg,Whitney,001,2021-06-22_09h47.07.365,Cat face experiment_fully sample_901-1225,2021.1.4,Win32,59.95203837
,,,,,,p,1.450855,0,226,226,226,1,226,images/pixabay_cat_003425.jpg,images/pixabay_cat_002614.jpg,Whitney,001,2021-06-22_09h47.07.365,Cat face experiment_fully sample_901-1225,2021.1.4,Win32,59.95203837
,,,,,,p,1.996515,0,227,227,227,1,227,images/flickr_cat_000581.jpg,images/pixabay_cat_001862.jpg,Whitney,001,2021-06-22_09h47.07.365,Cat face experiment_fully sample_901-1225,2021.1.4,Win32,59.95203837
,,,,,,q,2.423855,0,228,228,228,1,228,images/pixabay_cat_002690.jpg,images/pixabay_cat_000286.jpg,Whitney,001,2021-06-22_09h47.07.365,Cat face experiment_fully sample_901-1225,2021.1.4,Win32,59.95203837
,,,,,,p,14.441245,0,229,229,229,1,229,images/pixabay_cat_003186.jpg,images/pixabay_cat_004049.jpg,Whitney,001,2021-06-22_09h47.07.365,Cat face experiment_fully sample_901-1225,2021.1.4,Win32,59.95203837
,,,,,,p,0.9091,0,230,230,230,1,230,images/pixabay_cat_002601.jpg,images/flickr_cat_000285.jpg,Whitney,001,2021-06-22_09h47.07.365,Cat face experiment_fully sample_901-1225,2021.1.4,Win32,59.95203837
,,,,,,p,1.246275,0,231,231,231,1,231,images/pixabay_cat_000260.jpg,images/pixabay_cat_001284.jpg,Whitney,001,2021-06-22_09h47.07.365,Cat face experiment_fully sample_901-1225,2021.1.4,Win32,59.95203837
,,,,,,p,0.91832,0,232,232,232,1,232,images/flickr_cat_000266.jpg,images/pixabay_cat_003312.jpg,Whitney,001,2021-06-22_09h47.07.365,Cat face experiment_fully sample_901-1225,2021.1.4,Win32,59.95203837
,,,,,,p,1.243755,0,233,233,233,1,233,images/pixabay_cat_003566.jpg,images/pixabay_cat_001284.jpg,Whitney,001,2021-06-22_09h47.07.365,Cat face experiment_fully sample_901-1225,2021.1.4,Win32,59.95203837
,,,,,,q,1.23168,0,234,234,234,1,234,images/pixabay_cat_002690.jpg,images/pixabay_cat_002979.jpg,Whitney,001,2021-06-22_09h47.07.365,Cat face experiment_fully sample_901-1225,2021.1.4,Win32,59.95203837
,,,,,,q,0.79552,0,235,235,235,1,235,images/pixabay_cat_000411.jpg,images/pixabay_cat_002979.jpg,Whitney,001,2021-06-22_09h47.07.365,Cat face experiment_fully sample_901-1225,2021.1.4,Win32,59.95203837
,,,,,,q,0.839785,0,236,236,236,1,236,images/flickr_cat_000240.jpg,images/pixabay_cat_002614.jpg,Whitney,001,2021-06-22_09h47.07.365,Cat face experiment_fully sample_901-1225,2021.1.4,Win32,59.95203837
,,,,,,q,0.992445,0,237,237,237,1,237,images/pixabay_cat_000411.jpg,images/pixabay_cat_003638.jpg,Whitney,001,2021-06-22_09h47.07.365,Cat face experiment_fully sample_901-1225,2021.1.4,Win32,59.95203837
,,,,,,q,0.91094,0,238,238,238,1,238,images/pixabay_cat_001502.jpg,images/pixabay_cat_002979.jpg,Whitney,001,2021-06-22_09h47.07.365,Cat face experiment_fully sample_901-1225,2021.1.4,Win32,59.95203837
,,,,,,q,0.972655,0,239,239,239,1,239,images/pixabay_cat_001502.jpg,images/pixabay_cat_000260.jpg,Whitney,001,2021-06-22_09h47.07.365,Cat face experiment_fully sample_901-1225,2021.1.4,Win32,59.95203837
,,,,,,p,0.98451,0,240,240,240,1,240,images/pixabay_cat_004292.jpg,images/pixabay_cat_001265.jpg,Whitney,001,2021-06-22_09h47.07.365,Cat face experiment_fully sample_901-1225,2021.1.4,Win32,59.95203837
,,,,,,p,0.98159,0,241,241,241,1,241,images/flickr_cat_000266.jpg,images/pixabay_cat_002690.jpg,Whitney,001,2021-06-22_09h47.07.365,Cat face experiment_fully sample_901-1225,2021.1.4,Win32,59.95203837
,,,,,,p,0.8663,0,242,242,242,1,242,images/pixabay_cat_003638.jpg,images/pixabay_cat_002930.jpg,Whitney,001,2021-06-22_09h47.07.365,Cat face experiment_fully sample_901-1225,2021.1.4,Win32,59.95203837
,,,,,,p,0.8172,0,243,243,243,1,243,images/pixabay_cat_001502.jpg,images/pixabay_cat_000883.jpg,Whitney,001,2021-06-22_09h47.07.365,Cat face experiment_fully sample_901-1225,2021.1.4,Win32,59.95203837
,,,,,,p,1.113205,0,244,244,244,1,244,images/pixabay_cat_002601.jpg,images/pixabay_cat_004641.jpg,Whitney,001,2021-06-22_09h47.07.365,Cat face experiment_fully sample_901-1225,2021.1.4,Win32,59.95203837
,,,,,,p,0.9302,0,245,245,245,1,245,images/pixabay_cat_003638.jpg,images/flickr_cat_000200.jpg,Whitney,001,2021-06-22_09h47.07.365,Cat face experiment_fully sample_901-1225,2021.1.4,Win32,59.95203837
,,,,,,p,0.69691,0,246,246,246,1,246,images/pixabay_cat_003425.jpg,images/pixabay_cat_001862.jpg,Whitney,001,2021-06-22_09h47.07.365,Cat face experiment_fully sample_901-1225,2021.1.4,Win32,59.95203837
,,,,,,q,0.99702,0,247,247,247,1,247,images/pixabay_cat_000043.jpg,images/pixabay_cat_004148.jpg,Whitney,001,2021-06-22_09h47.07.365,Cat face experiment_fully sample_901-1225,2021.1.4,Win32,59.95203837
,,,,,,p,1.056115,0,248,248,248,1,248,images/pixabay_cat_004292.jpg,images/pixabay_cat_000043.jpg,Whitney,001,2021-06-22_09h47.07.365,Cat face experiment_fully sample_901-1225,2021.1.4,Win32,59.95203837
,,,,,,p,0.8221,0,249,249,249,1,249,images/flickr_cat_000240.jpg,images/pixabay_cat_001284.jpg,Whitney,001,2021-06-22_09h47.07.365,Cat face experiment_fully sample_901-1225,2021.1.4,Win32,59.95203837
,,,,,,q,1.185555,0,250,250,250,1,250,images/flickr_cat_000022.jpg,images/flickr_cat_000271.jpg,Whitney,001,2021-06-22_09h47.07.365,Cat face experiment_fully sample_901-1225,2021.1.4,Win32,59.95203837
,,,,,,p,1.19471,0,251,251,251,1,251,images/pixabay_cat_003121.jpg,images/pixabay_cat_004148.jpg,Whitney,001,2021-06-22_09h47.07.365,Cat face experiment_fully sample_901-1225,2021.1.4,Win32,59.95203837
,,,,,,q,1.23128,0,252,252,252,1,252,images/pixabay_cat_001206.jpg,images/pixabay_cat_000883.jpg,Whitney,001,2021-06-22_09h47.07.365,Cat face experiment_fully sample_901-1225,2021.1.4,Win32,59.95203837
,,,,,,q,1.38256,0,253,253,253,1,253,images/pixabay_cat_000411.jpg,images/pixabay_cat_000260.jpg,Whitney,001,2021-06-22_09h47.07.365,Cat face experiment_fully sample_901-1225,2021.1.4,Win32,59.95203837
,,,,,,p,2.046205,0,254,254,254,1,254,images/pixabay_cat_003186.jpg,images/pixabay_cat_001160.jpg,Whitney,001,2021-06-22_09h47.07.365,Cat face experiment_fully sample_901-1225,2021.1.4,Win32,59.95203837
,,,,,,p,1.4742,0,255,255,255,1,255,images/flickr_cat_000200.jpg,images/pixabay_cat_001862.jpg,Whitney,001,2021-06-22_09h47.07.365,Cat face experiment_fully sample_901-1225,2021.1.4,Win32,59.95203837
,,,,,,q,2.377275,0,256,256,256,1,256,images/pixabay_cat_001597.jpg,images/pixabay_cat_004489.jpg,Whitney,001,2021-06-22_09h47.07.365,Cat face experiment_fully sample_901-1225,2021.1.4,Win32,59.95203837
,,,,,,p,3.06473,0,257,257,257,1,257,images/flickr_cat_000083.jpg,images/pixabay_cat_000286.jpg,Whitney,001,2021-06-22_09h47.07.365,Cat face experiment_fully sample_901-1225,2021.1.4,Win32,59.95203837
,,,,,,q,0.986985,0,258,258,258,1,258,images/pixabay_cat_000120.jpg,images/pixabay_cat_000286.jpg,Whitney,001,2021-06-22_09h47.07.365,Cat face experiment_fully sample_901-1225,2021.1.4,Win32,59.95203837
,,,,,,p,1.367225,0,259,259,259,1,259,images/pixabay_cat_001160.jpg,images/pixabay_cat_001862.jpg,Whitney,001,2021-06-22_09h47.07.365,Cat face experiment_fully sample_901-1225,2021.1.4,Win32,59.95203837
,,,,,,p,2.197065,0,260,260,260,1,260,images/pixabay_cat_001102.jpg,images/pixabay_cat_003077.jpg,Whitney,001,2021-06-22_09h47.07.365,Cat face experiment_fully sample_901-1225,2021.1.4,Win32,59.95203837
,,,,,,q,1.273885,0,261,261,261,1,261,images/pixabay_cat_004148.jpg,images/pixabay_cat_002300.jpg,Whitney,001,2021-06-22_09h47.07.365,Cat face experiment_fully sample_901-1225,2021.1.4,Win32,59.95203837
,,,,,,p,1.3643,0,262,262,262,1,262,images/pixabay_cat_001597.jpg,images/pixabay_cat_004148.jpg,Whitney,001,2021-06-22_09h47.07.365,Cat face experiment_fully sample_901-1225,2021.1.4,Win32,59.95203837
,,,,,,p,0.93544,0,263,263,263,1,263,images/flickr_cat_000083.jpg,images/pixabay_cat_003312.jpg,Whitney,001,2021-06-22_09h47.07.365,Cat face experiment_fully sample_901-1225,2021.1.4,Win32,59.95203837
,,,,,,q,5.08025,0,264,264,264,1,264,images/flickr_cat_000581.jpg,images/pixabay_cat_004489.jpg,Whitney,001,2021-06-22_09h47.07.365,Cat face experiment_fully sample_901-1225,2021.1.4,Win32,59.95203837
,,,,,,p,15.58032,0,265,265,265,1,265,images/pixabay_cat_002045.jpg,images/pixabay_cat_001862.jpg,Whitney,001,2021-06-22_09h47.07.365,Cat face experiment_fully sample_901-1225,2021.1.4,Win32,59.95203837
,,,,,,p,1.24284,0,266,266,266,1,266,images/pixabay_cat_001102.jpg,images/flickr_cat_000240.jpg,Whitney,001,2021-06-22_09h47.07.365,Cat face experiment_fully sample_901-1225,2021.1.4,Win32,59.95203837
,,,,,,q,2.76251,0,267,267,267,1,267,images/pixabay_cat_001304.jpg,images/pixabay_cat_001178.jpg,Whitney,001,2021-06-22_09h47.07.365,Cat face experiment_fully sample_901-1225,2021.1.4,Win32,59.95203837
,,,,,,q,1.40909,0,268,268,268,1,268,images/flickr_cat_000271.jpg,images/pixabay_cat_001178.jpg,Whitney,001,2021-06-22_09h47.07.365,Cat face experiment_fully sample_901-1225,2021.1.4,Win32,59.95203837
,,,,,,q,1.6185,0,269,269,269,1,269,images/pixabay_cat_003635.jpg,images/pixabay_cat_003638.jpg,Whitney,001,2021-06-22_09h47.07.365,Cat face experiment_fully sample_901-1225,2021.1.4,Win32,59.95203837
,,,,,,p,1.011045,0,270,270,270,1,270,images/pixabay_cat_002979.jpg,images/pixabay_cat_004182.jpg,Whitney,001,2021-06-22_09h47.07.365,Cat face experiment_fully sample_901-1225,2021.1.4,Win32,59.95203837
,,,,,,q,0.97468,0,271,271,271,1,271,images/pixabay_cat_001265.jpg,images/pixabay_cat_004182.jpg,Whitney,001,2021-06-22_09h47.07.365,Cat face experiment_fully sample_901-1225,2021.1.4,Win32,59.95203837
,,,,,,q,1.280215,0,272,272,272,1,272,images/pixabay_cat_000411.jpg,images/flickr_cat_000266.jpg,Whitney,001,2021-06-22_09h47.07.365,Cat face experiment_fully sample_901-1225,2021.1.4,Win32,59.95203837
,,,,,,p,1.48631,0,273,273,273,1,273,images/pixabay_cat_001178.jpg,images/pixabay_cat_001805.jpg,Whitney,001,2021-06-22_09h47.07.365,Cat face experiment_fully sample_901-1225,2021.1.4,Win32,59.95203837
,,,,,,p,1.282045,0,274,274,274,1,274,images/flickr_cat_000266.jpg,images/pixabay_cat_001805.jpg,Whitney,001,2021-06-22_09h47.07.365,Cat face experiment_fully sample_901-1225,2021.1.4,Win32,59.95203837
,,,,,,q,1.1658,0,275,275,275,1,275,images/flickr_cat_000240.jpg,images/pixabay_cat_003312.jpg,Whitney,001,2021-06-22_09h47.07.365,Cat face experiment_fully sample_901-1225,2021.1.4,Win32,59.95203837
,,,,,,p,1.11796,0,276,276,276,1,276,images/pixabay_cat_003186.jpg,images/pixabay_cat_002930.jpg,Whitney,001,2021-06-22_09h47.07.365,Cat face experiment_fully sample_901-1225,2021.1.4,Win32,59.95203837
,,,,,,p,2.04379,0,277,277,277,1,277,images/pixabay_cat_003186.jpg,images/flickr_cat_000240.jpg,Whitney,001,2021-06-22_09h47.07.365,Cat face experiment_fully sample_901-1225,2021.1.4,Win32,59.95203837
,,,,,,p,1.09369,0,278,278,278,1,278,images/pixabay_cat_002979.jpg,images/pixabay_cat_001862.jpg,Whitney,001,2021-06-22_09h47.07.365,Cat face experiment_fully sample_901-1225,2021.1.4,Win32,59.95203837
,,,,,,q,1.21935,0,279,279,279,1,279,images/pixabay_cat_000120.jpg,images/flickr_cat_000271.jpg,Whitney,001,2021-06-22_09h47.07.365,Cat face experiment_fully sample_901-1225,2021.1.4,Win32,59.95203837
,,,,,,q,1.765085,0,280,280,280,1,280,images/pixabay_cat_000043.jpg,images/pixabay_cat_003312.jpg,Whitney,001,2021-06-22_09h47.07.365,Cat face experiment_fully sample_901-1225,2021.1.4,Win32,59.95203837
,,,,,,q,3.088775,0,281,281,281,1,281,images/pixabay_cat_003638.jpg,images/pixabay_cat_002300.jpg,Whitney,001,2021-06-22_09h47.07.365,Cat face experiment_fully sample_901-1225,2021.1.4,Win32,59.95203837
,,,,,,q,1.11212,0,282,282,282,1,282,images/pixabay_cat_003121.jpg,images/pixabay_cat_003638.jpg,Whitney,001,2021-06-22_09h47.07.365,Cat face experiment_fully sample_901-1225,2021.1.4,Win32,59.95203837
,,,,,,p,1.16281,0,283,283,283,1,283,images/pixabay_cat_001102.jpg,images/pixabay_cat_002690.jpg,Whitney,001,2021-06-22_09h47.07.365,Cat face experiment_fully sample_901-1225,2021.1.4,Win32,59.95203837
,,,,,,q,1.14211,0,284,284,284,1,284,images/pixabay_cat_000411.jpg,images/pixabay_cat_004049.jpg,Whitney,001,2021-06-22_09h47.07.365,Cat face experiment_fully sample_901-1225,2021.1.4,Win32,59.95203837
,,,,,,q,1.370925,0,285,285,285,1,285,images/pixabay_cat_000043.jpg,images/pixabay_cat_002979.jpg,Whitney,001,2021-06-22_09h47.07.365,Cat face experiment_fully sample_901-1225,2021.1.4,Win32,59.95203837
,,,,,,p,1.21594,0,286,286,286,1,286,images/pixabay_cat_001160.jpg,images/flickr_cat_000200.jpg,Whitney,001,2021-06-22_09h47.07.365,Cat face experiment_fully sample_901-1225,2021.1.4,Win32,59.95203837
,,,,,,p,1.786335,0,287,287,287,1,287,images/pixabay_cat_003425.jpg,images/flickr_cat_000271.jpg,Whitney,001,2021-06-22_09h47.07.365,Cat face experiment_fully sample_901-1225,2021.1.4,Win32,59.95203837
,,,,,,p,1.07597,0,288,288,288,1,288,images/pixabay_cat_003425.jpg,images/pixabay_cat_003121.jpg,Whitney,001,2021-06-22_09h47.07.365,Cat face experiment_fully sample_901-1225,2021.1.4,Win32,59.95203837
,,,,,,p,2.576895,0,289,289,289,1,289,images/pixabay_cat_004489.jpg,images/pixabay_cat_001304.jpg,Whitney,001,2021-06-22_09h47.07.365,Cat face experiment_fully sample_901-1225,2021.1.4,Win32,59.95203837
,,,,,,p,1.11799,0,290,290,290,1,290,images/pixabay_cat_001178.jpg,images/pixabay_cat_004182.jpg,Whitney,001,2021-06-22_09h47.07.365,Cat face experiment_fully sample_901-1225,2021.1.4,Win32,59.95203837
,,,,,,q,2.377905,0,291,291,291,1,291,images/pixabay_cat_004641.jpg,images/pixabay_cat_003186.jpg,Whitney,001,2021-06-22_09h47.07.365,Cat face experiment_fully sample_901-1225,2021.1.4,Win32,59.95203837
,,,,,,p,3.038725,0,292,292,292,1,292,images/pixabay_cat_004292.jpg,images/pixabay_cat_001805.jpg,Whitney,001,2021-06-22_09h47.07.365,Cat face experiment_fully sample_901-1225,2021.1.4,Win32,59.95203837
,,,,,,p,1.19154,0,293,293,293,1,293,images/pixabay_cat_004049.jpg,images/pixabay_cat_001284.jpg,Whitney,001,2021-06-22_09h47.07.365,Cat face experiment_fully sample_901-1225,2021.1.4,Win32,59.95203837
,,,,,,p,1.07413,0,294,294,294,1,294,images/pixabay_cat_004292.jpg,images/pixabay_cat_002690.jpg,Whitney,001,2021-06-22_09h47.07.365,Cat face experiment_fully sample_901-1225,2021.1.4,Win32,59.95203837
,,,,,,q,1.178765,0,295,295,295,1,295,images/pixabay_cat_002614.jpg,images/pixabay_cat_001304.jpg,Whitney,001,2021-06-22_09h47.07.365,Cat face experiment_fully sample_901-1225,2021.1.4,Win32,59.95203837
,,,,,,p,1.349325,0,296,296,296,1,296,images/pixabay_cat_001597.jpg,images/pixabay_cat_001862.jpg,Whitney,001,2021-06-22_09h47.07.365,Cat face experiment_fully sample_901-1225,2021.1.4,Win32,59.95203837
,,,,,,q,1.43475,0,297,297,297,1,297,images/pixabay_cat_002930.jpg,images/pixabay_cat_000286.jpg,Whitney,001,2021-06-22_09h47.07.365,Cat face experiment_fully sample_901-1225,2021.1.4,Win32,59.95203837
,,,,,,p,1.19914,0,298,298,298,1,298,images/flickr_cat_000271.jpg,images/pixabay_cat_002930.jpg,Whitney,001,2021-06-22_09h47.07.365,Cat face experiment_fully sample_901-1225,2021.1.4,Win32,59.95203837
,,,,,,p,1.14164,0,299,299,299,1,299,images/pixabay_cat_003425.jpg,images/pixabay_cat_000120.jpg,Whitney,001,2021-06-22_09h47.07.365,Cat face experiment_fully sample_901-1225,2021.1.4,Win32,59.95203837
,,,,,,p,1.497045,0,300,300,300,1,300,images/pixabay_cat_000260.jpg,images/pixabay_cat_004148.jpg,Whitney,001,2021-06-22_09h47.07.365,Cat face experiment_fully sample_901-1225,2021.1.4,Win32,59.95203837
,,,,,,p,1.95582,0,301,301,301,1,301,images/pixabay_cat_002979.jpg,images/pixabay_cat_001304.jpg,Whitney,001,2021-06-22_09h47.07.365,Cat face experiment_fully sample_901-1225,2021.1.4,Win32,59.95203837
,,,,,,p,0.70985,0,302,302,302,1,302,images/flickr_cat_000285.jpg,images/pixabay_cat_001862.jpg,Whitney,001,2021-06-22_09h47.07.365,Cat face experiment_fully sample_901-1225,2021.1.4,Win32,59.95203837
,,,,,,q,1.13103,0,303,303,303,1,303,images/pixabay_cat_001502.jpg,images/pixabay_cat_001304.jpg,Whitney,001,2021-06-22_09h47.07.365,Cat face experiment_fully sample_901-1225,2021.1.4,Win32,59.95203837
,,,,,,q,4.5579,0,304,304,304,1,304,images/pixabay_cat_001265.jpg,images/flickr_cat_000083.jpg,Whitney,001,2021-06-22_09h47.07.365,Cat face experiment_fully sample_901-1225,2021.1.4,Win32,59.95203837
,,,,,,p,1.070215,0,305,305,305,1,305,images/pixabay_cat_003638.jpg,images/pixabay_cat_001284.jpg,Whitney,001,2021-06-22_09h47.07.365,Cat face experiment_fully sample_901-1225,2021.1.4,Win32,59.95203837
,,,,,,p,0.795205,0,306,306,306,1,306,images/pixabay_cat_001597.jpg,images/pixabay_cat_003312.jpg,Whitney,001,2021-06-22_09h47.07.365,Cat face experiment_fully sample_901-1225,2021.1.4,Win32,59.95203837
,,,,,,q,1.582165,0,307,307,307,1,307,images/pixabay_cat_003425.jpg,images/pixabay_cat_001178.jpg,Whitney,001,2021-06-22_09h47.07.365,Cat face experiment_fully sample_901-1225,2021.1.4,Win32,59.95203837
,,,,,,q,1.18702,0,308,308,308,1,308,images/pixabay_cat_002045.jpg,images/flickr_cat_000206.jpg,Whitney,001,2021-06-22_09h47.07.365,Cat face experiment_fully sample_901-1225,2021.1.4,Win32,59.95203837
,,,,,,q,1.368495,0,309,309,309,1,309,images/pixabay_cat_000120.jpg,images/pixabay_cat_002979.jpg,Whitney,001,2021-06-22_09h47.07.365,Cat face experiment_fully sample_901-1225,2021.1.4,Win32,59.95203837
,,,,,,q,1.000475,0,310,310,310,1,310,images/pixabay_cat_003566.jpg,images/flickr_cat_000240.jpg,Whitney,001,2021-06-22_09h47.07.365,Cat face experiment_fully sample_901-1225,2021.1.4,Win32,59.95203837
,,,,,,p,0.935575,0,311,311,311,1,311,images/flickr_cat_000083.jpg,images/pixabay_cat_001284.jpg,Whitney,001,2021-06-22_09h47.07.365,Cat face experiment_fully sample_901-1225,2021.1.4,Win32,59.95203837
,,,,,,p,1.116115,0,312,312,312,1,312,images/pixabay_cat_004292.jpg,images/flickr_cat_000285.jpg,Whitney,001,2021-06-22_09h47.07.365,Cat face experiment_fully sample_901-1225,2021.1.4,Win32,59.95203837
,,,,,,q,0.95696,0,313,313,313,1,313,images/flickr_cat_000200.jpg,images/pixabay_cat_000100.jpg,Whitney,001,2021-06-22_09h47.07.365,Cat face experiment_fully sample_901-1225,2021.1.4,Win32,59.95203837
,,,,,,p,1.19063,0,314,314,314,1,314,images/pixabay_cat_004489.jpg,images/pixabay_cat_004148.jpg,Whitney,001,2021-06-22_09h47.07.365,Cat face experiment_fully sample_901-1225,2021.1.4,Win32,59.95203837
,,,,,,p,0.958475,0,315,315,315,1,315,images/pixabay_cat_001160.jpg,images/pixabay_cat_000286.jpg,Whitney,001,2021-06-22_09h47.07.365,Cat face experiment_fully sample_901-1225,2021.1.4,Win32,59.95203837
,,,,,,p,1.65423,0,316,316,316,1,316,images/pixabay_cat_001160.jpg,images/pixabay_cat_001304.jpg,Whitney,001,2021-06-22_09h47.07.365,Cat face experiment_fully sample_901-1225,2021.1.4,Win32,59.95203837
,,,,,,p,2.12402,0,317,317,317,1,317,images/pixabay_cat_001805.jpg,images/pixabay_cat_000286.jpg,Whitney,001,2021-06-22_09h47.07.365,Cat face experiment_fully sample_901-1225,2021.1.4,Win32,59.95203837
,,,,,,p,0.96113,0,318,318,318,1,318,images/pixabay_cat_002690.jpg,images/pixabay_cat_004148.jpg,Whitney,001,2021-06-22_09h47.07.365,Cat face experiment_fully sample_901-1225,2021.1.4,Win32,59.95203837
,,,,,,p,1.18427,0,319,319,319,1,319,images/pixabay_cat_003077.jpg,images/pixabay_cat_003312.jpg,Whitney,001,2021-06-22_09h47.07.365,Cat face experiment_fully sample_901-1225,2021.1.4,Win32,59.95203837
,,,,,,p,0.91158,0,320,320,320,1,320,images/pixabay_cat_002601.jpg,images/pixabay_cat_001206.jpg,Whitney,001,2021-06-22_09h47.07.365,Cat face experiment_fully sample_901-1225,2021.1.4,Win32,59.95203837
,,,,,,p,1.163275,0,321,321,321,1,321,images/pixabay_cat_002979.jpg,images/pixabay_cat_003638.jpg,Whitney,001,2021-06-22_09h47.07.365,Cat face experiment_fully sample_901-1225,2021.1.4,Win32,59.95203837
,,,,,,q,1.14552,0,322,322,322,1,322,images/pixabay_cat_002045.jpg,images/pixabay_cat_001178.jpg,Whitney,001,2021-06-22_09h47.07.365,Cat face experiment_fully sample_901-1225,2021.1.4,Win32,59.95203837
,,,,,,q,3.37649,0,323,323,323,1,323,images/pixabay_cat_001160.jpg,images/pixabay_cat_001178.jpg,Whitney,001,2021-06-22_09h47.07.365,Cat face experiment_fully sample_901-1225,2021.1.4,Win32,59.95203837
,,,,,,q,0.970845,0,324,324,324,1,324,images/flickr_cat_000022.jpg,images/pixabay_cat_003121.jpg,Whitney,001,2021-06-22_09h47.07.365,Cat face experiment_fully sample_901-1225,2021.1.4,Win32,59.95203837
